File: Dados - Compressão/P2 - Mac 02.txt
0
Diameter:	   5.00
   1.00
Area:	  19.6350
GaugeLength:	  50.00
2009-1-1
A3
001
DataNumber:	278
index	Load(kN)	Defor(mm)	Stroke(mm)	Time(s)
    0	  0.0080	  0.0088	   0.009	   0.045
    1	  0.0120	  0.0162	   0.016	   0.095
    2	  0.0160	  0.0250	   0.025	   0.145
    3	  0.0110	  0.0325	   0.032	   0.195
    4	  0.0100	  0.0412	   0.041	   0.245
    5	  0.0110	  0.0500	   0.050	   0.295
    6	  0.0120	  0.0575	   0.057	   0.345
    7	  0.0120	  0.0662	   0.066	   0.395
    8	  0.0160	  0.0750	   0.075	   0.445
    9	  0.0200	  0.0825	   0.082	   0.495
   10	  0.0240	  0.0912	   0.091	   0.545
   11	  0.0260	  0.1000	   0.100	   0.595
   12	  0.0300	  0.1075	   0.107	   0.645
   13	  0.0330	  0.1163	   0.116	   0.695
   14	  0.0360	  0.1250	   0.125	   0.745
   15	  0.0390	  0.1325	   0.132	   0.795
   16	  0.0300	  0.1412	   0.141	   0.845
   17	  0.0250	  0.1500	   0.150	   0.895
   18	  0.0380	  0.1575	   0.157	   0.945
   19	  0.0500	  0.1662	   0.166	   0.995
   20	  0.0640	  0.1750	   0.175	   1.045
   21	  0.0770	  0.1825	   0.182	   1.095
   22	  0.0910	  0.1912	   0.191	   1.145
   23	  0.1050	  0.1987	   0.199	   1.195
   24	  0.1200	  0.2075	   0.207	   1.245
   25	  0.1360	  0.2163	   0.216	   1.295
   26	  0.1530	  0.2237	   0.224	   1.345
   27	  0.1700	  0.2325	   0.233	   1.395
   28	  0.1900	  0.2412	   0.241	   1.445
   29	  0.2110	  0.2488	   0.249	   1.495
   30	  0.2320	  0.2575	   0.257	   1.545
   31	  0.2550	  0.2662	   0.266	   1.595
   32	  0.2770	  0.2738	   0.274	   1.645
   33	  0.3010	  0.2825	   0.282	   1.695
   34	  0.3240	  0.2912	   0.291	   1.745
   35	  0.3460	  0.2987	   0.299	   1.795
   36	  0.3690	  0.3075	   0.308	   1.845
   37	  0.3930	  0.3162	   0.316	   1.895
   38	  0.4160	  0.3237	   0.324	   1.945
   39	  0.4390	  0.3325	   0.332	   1.995
   40	  0.4630	  0.3413	   0.341	   2.045
   41	  0.4880	  0.3487	   0.349	   2.095
   42	  0.5140	  0.3575	   0.357	   2.145
   43	  0.5400	  0.3662	   0.366	   2.195
   44	  0.5670	  0.3738	   0.374	   2.245
   45	  0.5950	  0.3825	   0.382	   2.295
   46	  0.6250	  0.3912	   0.391	   2.345
   47	  0.6540	  0.3987	   0.399	   2.395
   48	  0.6830	  0.4075	   0.407	   2.445
   49	  0.7140	  0.4162	   0.416	   2.495
   50	  0.7450	  0.4250	   0.425	   2.545
   51	  0.7760	  0.4325	   0.433	   2.595
   52	  0.8060	  0.4412	   0.441	   2.645
   53	  0.8370	  0.4500	   0.450	   2.695
   54	  0.8690	  0.4575	   0.457	   2.745
   55	  0.9000	  0.4663	   0.466	   2.795
   56	  0.9320	  0.4750	   0.475	   2.845
   57	  0.9640	  0.4825	   0.482	   2.895
   58	  0.9960	  0.4912	   0.491	   2.945
   59	  1.0280	  0.4988	   0.499	   2.995
   60	  1.0600	  0.5075	   0.507	   3.045
   61	  1.0920	  0.5163	   0.516	   3.095
   62	  1.1240	  0.5250	   0.525	   3.145
   63	  1.1560	  0.5325	   0.532	   3.195
   64	  1.1880	  0.5412	   0.541	   3.245
   65	  1.2200	  0.5500	   0.550	   3.295
   66	  1.2520	  0.5575	   0.558	   3.345
   67	  1.2850	  0.5662	   0.566	   3.395
   68	  1.3170	  0.5737	   0.574	   3.445
   69	  1.3500	  0.5825	   0.582	   3.495
   70	  1.3830	  0.5913	   0.591	   3.545
   71	  1.4160	  0.5987	   0.599	   3.595
   72	  1.4500	  0.6075	   0.607	   3.645
   73	  1.4830	  0.6162	   0.616	   3.695
   74	  1.5170	  0.6237	   0.624	   3.745
   75	  1.5510	  0.6325	   0.632	   3.795
   76	  1.5860	  0.6413	   0.641	   3.845
   77	  1.6200	  0.6500	   0.650	   3.895
   78	  1.6560	  0.6575	   0.657	   3.945
   79	  1.6910	  0.6662	   0.666	   3.995
   80	  1.7270	  0.6750	   0.675	   4.045
   81	  1.7630	  0.6825	   0.683	   4.095
   82	  1.7990	  0.6912	   0.691	   4.145
   83	  1.8340	  0.7000	   0.700	   4.195
   84	  1.8700	  0.7075	   0.707	   4.245
   85	  1.9060	  0.7163	   0.716	   4.295
   86	  1.9410	  0.7250	   0.725	   4.345
   87	  1.9770	  0.7325	   0.732	   4.395
   88	  2.0130	  0.7412	   0.741	   4.445
   89	  2.0490	  0.7500	   0.750	   4.495
   90	  2.0850	  0.7575	   0.757	   4.545
   91	  2.1210	  0.7662	   0.766	   4.595
   92	  2.1570	  0.7750	   0.775	   4.645
   93	  2.1930	  0.7825	   0.782	   4.695
   94	  2.2300	  0.7912	   0.791	   4.745
   95	  2.2650	  0.8000	   0.800	   4.795
   96	  2.3000	  0.8075	   0.808	   4.845
   97	  2.3350	  0.8162	   0.816	   4.895
   98	  2.3710	  0.8237	   0.824	   4.945
   99	  2.4050	  0.8325	   0.832	   4.995
  100	  2.4400	  0.8413	   0.841	   5.045
  101	  2.4740	  0.8500	   0.850	   5.095
  102	  2.5080	  0.8575	   0.857	   5.145
  103	  2.5420	  0.8662	   0.866	   5.195
  104	  2.5760	  0.8750	   0.875	   5.245
  105	  2.6090	  0.8825	   0.882	   5.295
  106	  2.6430	  0.8912	   0.891	   5.345
  107	  2.6760	  0.9000	   0.900	   5.395
  108	  2.7100	  0.9075	   0.907	   5.445
  109	  2.7430	  0.9162	   0.916	   5.495
  110	  2.7760	  0.9250	   0.925	   5.545
  111	  2.8100	  0.9325	   0.933	   5.595
  112	  2.8430	  0.9412	   0.941	   5.645
  113	  2.8750	  0.9500	   0.950	   5.695
  114	  2.9060	  0.9575	   0.957	   5.745
  115	  2.9380	  0.9663	   0.966	   5.795
  116	  2.9710	  0.9750	   0.975	   5.845
  117	  3.0020	  0.9825	   0.982	   5.895
  118	  3.0330	  0.9912	   0.991	   5.945
  119	  3.0640	  1.0000	   1.000	   5.995
  120	  3.0950	  1.0075	   1.007	   6.045
  121	  1.6000	  1.0150	   1.015	   6.095
  122	  1.3210	  1.0237	   1.024	   6.145
  123	  1.3470	  1.0325	   1.033	   6.195
  124	  1.3700	  1.0400	   1.040	   6.245
  125	  1.3930	  1.0487	   1.049	   6.295
  126	  1.4150	  1.0575	   1.058	   6.345
  127	  1.4370	  1.0662	   1.066	   6.395
  128	  1.4570	  1.0738	   1.074	   6.445
  129	  1.4780	  1.0825	   1.082	   6.495
  130	  1.4980	  1.0912	   1.091	   6.545
  131	  1.5180	  1.0987	   1.099	   6.595
  132	  1.5380	  1.1075	   1.107	   6.645
  133	  1.5570	  1.1162	   1.116	   6.695
  134	  1.5740	  1.1237	   1.124	   6.745
  135	  1.5910	  1.1325	   1.132	   6.795
  136	  1.6090	  1.1413	   1.141	   6.845
  137	  1.6260	  1.1500	   1.150	   6.895
  138	  1.6420	  1.1575	   1.158	   6.945
  139	  1.6580	  1.1662	   1.166	   6.995
  140	  1.6750	  1.1750	   1.175	   7.045
  141	  1.6910	  1.1825	   1.183	   7.095
  142	  1.7070	  1.1912	   1.191	   7.145
  143	  1.7210	  1.2000	   1.200	   7.195
  144	  1.7370	  1.2075	   1.207	   7.245
  145	  1.7520	  1.2162	   1.216	   7.295
  146	  1.7660	  1.2250	   1.225	   7.345
  147	  1.7800	  1.2337	   1.234	   7.395
  148	  1.7950	  1.2412	   1.241	   7.445
  149	  1.8080	  1.2500	   1.250	   7.495
  150	  1.8220	  1.2587	   1.259	   7.545
  151	  1.8340	  1.2663	   1.266	   7.595
  152	  1.8470	  1.2750	   1.275	   7.645
  153	  1.8590	  1.2837	   1.284	   7.695
  154	  1.8710	  1.2912	   1.291	   7.745
  155	  1.8840	  1.3000	   1.300	   7.795
  156	  1.8950	  1.3087	   1.309	   7.845
  157	  1.9060	  1.3162	   1.316	   7.895
  158	  1.9170	  1.3250	   1.325	   7.945
  159	  1.9290	  1.3338	   1.334	   7.995
  160	  1.9400	  1.3412	   1.341	   8.045
  161	  1.9510	  1.3500	   1.350	   8.095
  162	  1.9590	  1.3587	   1.359	   8.145
  163	  1.9670	  1.3675	   1.367	   8.195
  164	  1.9760	  1.3750	   1.375	   8.245
  165	  1.9830	  1.3837	   1.384	   8.295
  166	  1.9850	  1.3925	   1.392	   8.345
  167	  1.9920	  1.4000	   1.400	   8.395
  168	  2.0000	  1.4087	   1.409	   8.445
  169	  2.0080	  1.4175	   1.418	   8.495
  170	  2.0170	  1.4262	   1.426	   8.545
  171	  2.0270	  1.4337	   1.434	   8.595
  172	  2.0330	  1.4425	   1.442	   8.645
  173	  2.0260	  1.4512	   1.451	   8.695
  174	  2.0310	  1.4588	   1.459	   8.745
  175	  2.0380	  1.4675	   1.467	   8.795
  176	  2.0440	  1.4762	   1.476	   8.845
  177	  2.0510	  1.4837	   1.484	   8.895
  178	  2.0580	  1.4925	   1.492	   8.945
  179	  2.0640	  1.5012	   1.501	   8.995
  180	  2.0700	  1.5100	   1.510	   9.045
  181	  2.0750	  1.5175	   1.517	   9.095
  182	  2.0780	  1.5263	   1.526	   9.145
  183	  2.0830	  1.5350	   1.535	   9.195
  184	  2.0070	  1.5425	   1.543	   9.245
  185	  1.9150	  1.5512	   1.551	   9.295
  186	  1.9020	  1.5600	   1.560	   9.345
  187	  1.8820	  1.5688	   1.569	   9.395
  188	  1.8090	  1.5762	   1.576	   9.445
  189	  1.7430	  1.5850	   1.585	   9.495
  190	  1.7150	  1.5938	   1.594	   9.545
  191	  1.6970	  1.6012	   1.601	   9.595
  192	  1.6850	  1.6100	   1.610	   9.645
  193	  1.6760	  1.6187	   1.619	   9.695
  194	  1.6680	  1.6262	   1.626	   9.745
  195	  1.6610	  1.6350	   1.635	   9.795
  196	  1.6530	  1.6437	   1.644	   9.845
  197	  1.6440	  1.6525	   1.652	   9.895
  198	  1.6380	  1.6600	   1.660	   9.945
  199	  1.6330	  1.6687	   1.669	   9.995
  200	  1.6290	  1.6775	   1.678	  10.045
  201	  1.6260	  1.6862	   1.686	  10.095
  202	  1.6220	  1.6937	   1.694	  10.145
  203	  1.6180	  1.7025	   1.702	  10.195
  204	  1.6080	  1.7112	   1.711	  10.245
  205	  1.4480	  1.7200	   1.720	  10.295
  206	  1.4250	  1.7275	   1.727	  10.345
  207	  1.4240	  1.7362	   1.736	  10.395
  208	  1.4250	  1.7437	   1.744	  10.445
  209	  1.4250	  1.7525	   1.752	  10.495
  210	  1.4280	  1.7613	   1.761	  10.545
  211	  1.4290	  1.7700	   1.770	  10.595
  212	  1.4300	  1.7775	   1.777	  10.645
  213	  1.4310	  1.7862	   1.786	  10.695
  214	  1.4330	  1.7950	   1.795	  10.745
  215	  1.4350	  1.8037	   1.804	  10.795
  216	  1.4360	  1.8112	   1.811	  10.845
  217	  1.4380	  1.8200	   1.820	  10.895
  218	  1.4410	  1.8288	   1.829	  10.945
  219	  1.4420	  1.8362	   1.836	  10.995
  220	  1.3830	  1.8450	   1.845	  11.045
  221	  1.0810	  1.8537	   1.854	  11.095
  222	  0.9380	  1.8625	   1.862	  11.145
  223	  0.8530	  1.8700	   1.870	  11.195
  224	  0.8410	  1.8787	   1.879	  11.245
  225	  0.8380	  1.8875	   1.887	  11.295
  226	  0.8360	  1.8950	   1.895	  11.345
  227	  0.8360	  1.9037	   1.904	  11.395
  228	  0.8370	  1.9125	   1.912	  11.445
  229	  0.8380	  1.9200	   1.920	  11.495
  230	  0.8400	  1.9287	   1.929	  11.545
  231	  0.8420	  1.9375	   1.938	  11.595
  232	  0.8430	  1.9462	   1.946	  11.645
  233	  0.8450	  1.9538	   1.954	  11.695
  234	  0.8470	  1.9625	   1.962	  11.745
  235	  0.8500	  1.9712	   1.971	  11.795
  236	  0.8520	  1.9787	   1.979	  11.845
  237	  0.8550	  1.9875	   1.987	  11.895
  238	  0.8560	  1.9962	   1.996	  11.945
  239	  0.8580	  2.0037	   2.004	  11.995
  240	  0.8590	  2.0125	   2.013	  12.045
  241	  0.8600	  2.0213	   2.021	  12.095
  242	  0.8600	  2.0300	   2.030	  12.145
  243	  0.8620	  2.0375	   2.037	  12.195
  244	  0.8630	  2.0462	   2.046	  12.245
  245	  0.8640	  2.0550	   2.055	  12.295
  246	  0.8580	  2.0625	   2.062	  12.345
  247	  0.8260	  2.0712	   2.071	  12.395
  248	  0.4330	  2.0800	   2.080	  12.445
  249	  0.1310	  2.0875	   2.087	  12.495
  250	  0.1190	  2.0963	   2.096	  12.545
  251	  0.1120	  2.1050	   2.105	  12.595
  252	  0.1060	  2.1125	   2.112	  12.645
  253	  0.1030	  2.1212	   2.121	  12.695
  254	  0.1000	  2.1300	   2.130	  12.745
  255	  0.0970	  2.1387	   2.139	  12.795
  256	  0.0960	  2.1463	   2.146	  12.845
  257	  0.0940	  2.1550	   2.155	  12.895
  258	  0.0900	  2.1637	   2.164	  12.945
  259	  0.0830	  2.1712	   2.171	  12.995
  260	  0.0740	  2.1800	   2.180	  13.045
  261	  0.0690	  2.1888	   2.189	  13.095
  262	  0.0660	  2.1962	   2.196	  13.145
  263	  0.0610	  2.2050	   2.205	  13.195
  264	  0.0580	  2.2137	   2.214	  13.245
  265	  0.0560	  2.2225	   2.222	  13.295
  266	  0.0500	  2.2300	   2.230	  13.345
  267	  0.0460	  2.2387	   2.239	  13.395
  268	  0.0430	  2.2475	   2.247	  13.445
  269	  0.0400	  2.2550	   2.255	  13.495
  270	  0.0390	  2.2637	   2.264	  13.545
  271	  0.0350	  2.2725	   2.273	  13.595
  272	  0.0350	  2.2800	   2.280	  13.645
  273	  0.0360	  2.2887	   2.289	  13.695
  274	  0.0350	  2.2975	   2.297	  13.745
  275	  0.0310	  2.3062	   2.306	  13.795
  276	  0.0240	  2.3138	   2.314	  13.845
  277	  0.0230	  2.3225	   2.322	  13.895
ControlMode:	0
Rate:	 10.0000
(null)
4
step	1
0
5.000000
0.000000
1
1
0.500000
2
step	2
1
5.000000
0.000000
1
1
2.000000
3
step	3
5
2.000000
0.000000
1
0
30
4
step	4
8
0.000000
0.000000
0
0
0.000000
0
2