File: Dados - Compressão/P2 - Mac 05.txt
0
Diameter:	   5.00
   1.00
Area:	  19.6350
GaugeLength:	  50.00
2009-1-1
A3
001
DataNumber:	351
index	Load(kN)	Defor(mm)	Stroke(mm)	Time(s)
    0	  0.0080	  0.0088	   0.009	   0.045
    1	  0.0120	  0.0162	   0.016	   0.095
    2	  0.0180	  0.0250	   0.025	   0.145
    3	  0.0230	  0.0337	   0.034	   0.195
    4	  0.0290	  0.0412	   0.041	   0.245
    5	  0.0350	  0.0500	   0.050	   0.295
    6	  0.0430	  0.0575	   0.057	   0.345
    7	  0.0500	  0.0662	   0.066	   0.395
    8	  0.0580	  0.0750	   0.075	   0.445
    9	  0.0670	  0.0825	   0.082	   0.495
   10	  0.0770	  0.0912	   0.091	   0.545
   11	  0.0870	  0.0987	   0.099	   0.595
   12	  0.0970	  0.1075	   0.107	   0.645
   13	  0.1080	  0.1163	   0.116	   0.695
   14	  0.1190	  0.1237	   0.124	   0.745
   15	  0.1300	  0.1325	   0.132	   0.795
   16	  0.1420	  0.1412	   0.141	   0.845
   17	  0.1520	  0.1487	   0.149	   0.895
   18	  0.1640	  0.1575	   0.157	   0.945
   19	  0.1750	  0.1662	   0.166	   0.995
   20	  0.1870	  0.1737	   0.174	   1.045
   21	  0.1990	  0.1825	   0.182	   1.095
   22	  0.2100	  0.1900	   0.190	   1.145
   23	  0.2220	  0.1987	   0.199	   1.195
   24	  0.2340	  0.2075	   0.207	   1.245
   25	  0.2460	  0.2150	   0.215	   1.295
   26	  0.2570	  0.2237	   0.224	   1.345
   27	  0.2690	  0.2325	   0.233	   1.395
   28	  0.2810	  0.2400	   0.240	   1.445
   29	  0.2920	  0.2488	   0.249	   1.495
   30	  0.3040	  0.2575	   0.257	   1.545
   31	  0.3150	  0.2650	   0.265	   1.595
   32	  0.3260	  0.2738	   0.274	   1.645
   33	  0.3380	  0.2825	   0.282	   1.695
   34	  0.3500	  0.2900	   0.290	   1.745
   35	  0.3600	  0.2987	   0.299	   1.795
   36	  0.3720	  0.3063	   0.306	   1.845
   37	  0.3830	  0.3150	   0.315	   1.895
   38	  0.3950	  0.3237	   0.324	   1.945
   39	  0.4070	  0.3312	   0.331	   1.995
   40	  0.4180	  0.3400	   0.340	   2.045
   41	  0.4290	  0.3487	   0.349	   2.095
   42	  0.4400	  0.3562	   0.356	   2.145
   43	  0.4520	  0.3650	   0.365	   2.195
   44	  0.4640	  0.3738	   0.374	   2.245
   45	  0.4750	  0.3812	   0.381	   2.295
   46	  0.4870	  0.3900	   0.390	   2.345
   47	  0.4990	  0.3987	   0.399	   2.395
   48	  0.5110	  0.4062	   0.406	   2.445
   49	  0.5240	  0.4150	   0.415	   2.495
   50	  0.5360	  0.4225	   0.422	   2.545
   51	  0.5470	  0.4312	   0.431	   2.595
   52	  0.5600	  0.4400	   0.440	   2.645
   53	  0.5730	  0.4475	   0.447	   2.695
   54	  0.5850	  0.4562	   0.456	   2.745
   55	  0.5980	  0.4637	   0.464	   2.795
   56	  0.6100	  0.4725	   0.472	   2.845
   57	  0.6240	  0.4812	   0.481	   2.895
   58	  0.6370	  0.4900	   0.490	   2.945
   59	  0.6500	  0.4975	   0.498	   2.995
   60	  0.6640	  0.5062	   0.506	   3.045
   61	  0.6770	  0.5138	   0.514	   3.095
   62	  0.6910	  0.5225	   0.522	   3.145
   63	  0.7050	  0.5312	   0.531	   3.195
   64	  0.7190	  0.5387	   0.539	   3.245
   65	  0.7330	  0.5475	   0.548	   3.295
   66	  0.7480	  0.5562	   0.556	   3.345
   67	  0.7630	  0.5637	   0.564	   3.395
   68	  0.7780	  0.5725	   0.572	   3.445
   69	  0.7940	  0.5813	   0.581	   3.495
   70	  0.8090	  0.5888	   0.589	   3.545
   71	  0.8250	  0.5975	   0.597	   3.595
   72	  0.8400	  0.6062	   0.606	   3.645
   73	  0.8560	  0.6137	   0.614	   3.695
   74	  0.8720	  0.6225	   0.623	   3.745
   75	  0.8870	  0.6312	   0.631	   3.795
   76	  0.9030	  0.6387	   0.639	   3.845
   77	  0.9180	  0.6475	   0.647	   3.895
   78	  0.9340	  0.6550	   0.655	   3.945
   79	  0.9500	  0.6637	   0.664	   3.995
   80	  0.9670	  0.6725	   0.673	   4.045
   81	  0.9820	  0.6800	   0.680	   4.095
   82	  0.9990	  0.6887	   0.689	   4.145
   83	  1.0150	  0.6962	   0.696	   4.195
   84	  1.0310	  0.7050	   0.705	   4.245
   85	  1.0470	  0.7138	   0.714	   4.295
   86	  1.0640	  0.7212	   0.721	   4.345
   87	  1.0800	  0.7300	   0.730	   4.395
   88	  1.0980	  0.7387	   0.739	   4.445
   89	  1.1130	  0.7462	   0.746	   4.495
   90	  1.1290	  0.7550	   0.755	   4.545
   91	  1.1450	  0.7637	   0.764	   4.595
   92	  1.1620	  0.7713	   0.771	   4.645
   93	  1.1770	  0.7800	   0.780	   4.695
   94	  1.1940	  0.7875	   0.787	   4.745
   95	  1.2110	  0.7962	   0.796	   4.795
   96	  1.2280	  0.8050	   0.805	   4.845
   97	  1.2450	  0.8125	   0.812	   4.895
   98	  1.2620	  0.8212	   0.821	   4.945
   99	  1.2790	  0.8300	   0.830	   4.995
  100	  1.2960	  0.8375	   0.837	   5.045
  101	  1.3140	  0.8462	   0.846	   5.095
  102	  1.3310	  0.8550	   0.855	   5.145
  103	  1.3490	  0.8625	   0.862	   5.195
  104	  1.3670	  0.8712	   0.871	   5.245
  105	  1.3840	  0.8800	   0.880	   5.295
  106	  1.4030	  0.8875	   0.887	   5.345
  107	  1.4210	  0.8963	   0.896	   5.395
  108	  1.4380	  0.9050	   0.905	   5.445
  109	  1.4570	  0.9125	   0.912	   5.495
  110	  1.4740	  0.9212	   0.921	   5.545
  111	  1.4920	  0.9287	   0.929	   5.595
  112	  1.5100	  0.9375	   0.938	   5.645
  113	  1.5280	  0.9462	   0.946	   5.695
  114	  1.5460	  0.9537	   0.954	   5.745
  115	  1.5650	  0.9625	   0.962	   5.795
  116	  1.5830	  0.9700	   0.970	   5.845
  117	  1.6020	  0.9787	   0.979	   5.895
  118	  1.6200	  0.9875	   0.987	   5.945
  119	  1.6390	  0.9950	   0.995	   5.995
  120	  1.6580	  1.0037	   1.004	   6.045
  121	  1.6770	  1.0125	   1.012	   6.095
  122	  1.6950	  1.0200	   1.020	   6.145
  123	  1.7140	  1.0287	   1.029	   6.195
  124	  1.7330	  1.0375	   1.038	   6.245
  125	  1.7510	  1.0450	   1.045	   6.295
  126	  1.7690	  1.0537	   1.054	   6.345
  127	  1.7870	  1.0625	   1.062	   6.395
  128	  1.8050	  1.0700	   1.070	   6.445
  129	  1.8230	  1.0788	   1.079	   6.495
  130	  1.8410	  1.0862	   1.086	   6.545
  131	  1.8600	  1.0950	   1.095	   6.595
  132	  1.8770	  1.1037	   1.104	   6.645
  133	  1.8960	  1.1112	   1.111	   6.695
  134	  1.9140	  1.1200	   1.120	   6.745
  135	  1.9330	  1.1287	   1.129	   6.795
  136	  1.9520	  1.1363	   1.136	   6.845
  137	  1.9720	  1.1450	   1.145	   6.895
  138	  1.9910	  1.1537	   1.154	   6.945
  139	  2.0090	  1.1612	   1.161	   6.995
  140	  2.0280	  1.1700	   1.170	   7.045
  141	  2.0490	  1.1775	   1.178	   7.095
  142	  2.0660	  1.1862	   1.186	   7.145
  143	  2.0860	  1.1950	   1.195	   7.195
  144	  2.1040	  1.2025	   1.202	   7.245
  145	  2.1230	  1.2112	   1.211	   7.295
  146	  2.1420	  1.2188	   1.219	   7.345
  147	  2.1610	  1.2275	   1.227	   7.395
  148	  2.1800	  1.2362	   1.236	   7.445
  149	  2.2000	  1.2437	   1.244	   7.495
  150	  2.2190	  1.2525	   1.252	   7.545
  151	  2.2390	  1.2613	   1.261	   7.595
  152	  2.2580	  1.2687	   1.269	   7.645
  153	  2.2770	  1.2775	   1.277	   7.695
  154	  2.2960	  1.2862	   1.286	   7.745
  155	  2.3150	  1.2937	   1.294	   7.795
  156	  2.3340	  1.3025	   1.303	   7.845
  157	  2.3520	  1.3112	   1.311	   7.895
  158	  2.3710	  1.3188	   1.319	   7.945
  159	  2.3910	  1.3275	   1.327	   7.995
  160	  2.4090	  1.3362	   1.336	   8.045
  161	  2.4280	  1.3438	   1.344	   8.095
  162	  2.4470	  1.3525	   1.352	   8.145
  163	  2.4660	  1.3600	   1.360	   8.195
  164	  2.4850	  1.3687	   1.369	   8.245
  165	  2.5050	  1.3775	   1.377	   8.295
  166	  2.5250	  1.3850	   1.385	   8.345
  167	  2.5450	  1.3937	   1.394	   8.395
  168	  2.5650	  1.4025	   1.402	   8.445
  169	  2.5840	  1.4100	   1.410	   8.495
  170	  2.6030	  1.4187	   1.419	   8.545
  171	  2.6220	  1.4275	   1.428	   8.595
  172	  2.6420	  1.4350	   1.435	   8.645
  173	  2.6620	  1.4438	   1.444	   8.695
  174	  2.6810	  1.4525	   1.452	   8.745
  175	  2.7000	  1.4600	   1.460	   8.795
  176	  2.7200	  1.4688	   1.469	   8.845
  177	  2.7380	  1.4775	   1.477	   8.895
  178	  2.7560	  1.4850	   1.485	   8.945
  179	  1.7120	  1.4937	   1.494	   8.995
  180	  1.1660	  1.5025	   1.502	   9.045
  181	  1.1870	  1.5113	   1.511	   9.095
  182	  1.2090	  1.5187	   1.519	   9.145
  183	  1.2310	  1.5275	   1.527	   9.195
  184	  1.2520	  1.5362	   1.536	   9.245
  185	  1.2740	  1.5437	   1.544	   9.295
  186	  1.2960	  1.5525	   1.553	   9.345
  187	  1.3170	  1.5612	   1.561	   9.395
  188	  1.3380	  1.5700	   1.570	   9.445
  189	  1.3590	  1.5775	   1.577	   9.495
  190	  1.3780	  1.5862	   1.586	   9.545
  191	  1.3980	  1.5950	   1.595	   9.595
  192	  1.4170	  1.6025	   1.602	   9.645
  193	  1.4360	  1.6112	   1.611	   9.695
  194	  1.4540	  1.6200	   1.620	   9.745
  195	  1.4730	  1.6275	   1.627	   9.795
  196	  1.4900	  1.6363	   1.636	   9.845
  197	  1.5080	  1.6450	   1.645	   9.895
  198	  1.5260	  1.6525	   1.652	   9.945
  199	  1.5440	  1.6612	   1.661	   9.995
  200	  1.5610	  1.6700	   1.670	  10.045
  201	  1.5780	  1.6775	   1.678	  10.095
  202	  1.5950	  1.6862	   1.686	  10.145
  203	  1.6120	  1.6950	   1.695	  10.195
  204	  1.6280	  1.7025	   1.702	  10.245
  205	  1.6440	  1.7112	   1.711	  10.295
  206	  1.6600	  1.7200	   1.720	  10.345
  207	  1.6760	  1.7287	   1.729	  10.395
  208	  1.6920	  1.7362	   1.736	  10.445
  209	  1.7070	  1.7450	   1.745	  10.495
  210	  1.7220	  1.7525	   1.752	  10.545
  211	  1.7370	  1.7613	   1.761	  10.595
  212	  1.7510	  1.7700	   1.770	  10.645
  213	  1.7650	  1.7775	   1.777	  10.695
  214	  1.7790	  1.7862	   1.786	  10.745
  215	  1.7920	  1.7950	   1.795	  10.795
  216	  1.8070	  1.8025	   1.803	  10.845
  217	  1.8200	  1.8112	   1.811	  10.895
  218	  1.8340	  1.8200	   1.820	  10.945
  219	  1.8480	  1.8288	   1.829	  10.995
  220	  1.8620	  1.8362	   1.836	  11.045
  221	  1.8750	  1.8450	   1.845	  11.095
  222	  1.8880	  1.8537	   1.854	  11.145
  223	  1.9010	  1.8625	   1.862	  11.195
  224	  1.9140	  1.8700	   1.870	  11.245
  225	  1.9260	  1.8787	   1.879	  11.295
  226	  1.9390	  1.8862	   1.886	  11.345
  227	  1.9510	  1.8950	   1.895	  11.395
  228	  1.9600	  1.9037	   1.904	  11.445
  229	  1.9650	  1.9125	   1.912	  11.495
  230	  1.9760	  1.9200	   1.920	  11.545
  231	  1.9870	  1.9287	   1.929	  11.595
  232	  1.9970	  1.9375	   1.938	  11.645
  233	  2.0080	  1.9450	   1.945	  11.695
  234	  2.0190	  1.9538	   1.954	  11.745
  235	  2.0290	  1.9625	   1.962	  11.795
  236	  2.0380	  1.9700	   1.970	  11.845
  237	  2.0480	  1.9787	   1.979	  11.895
  238	  2.0580	  1.9875	   1.987	  11.945
  239	  2.0680	  1.9950	   1.995	  11.995
  240	  2.0770	  2.0037	   2.004	  12.045
  241	  2.0870	  2.0125	   2.013	  12.095
  242	  2.0960	  2.0200	   2.020	  12.145
  243	  2.1050	  2.0287	   2.029	  12.195
  244	  2.1140	  2.0375	   2.037	  12.245
  245	  2.1230	  2.0462	   2.046	  12.295
  246	  2.1330	  2.0538	   2.054	  12.345
  247	  2.1420	  2.0625	   2.062	  12.395
  248	  2.1510	  2.0712	   2.071	  12.445
  249	  2.1600	  2.0787	   2.079	  12.495
  250	  2.1700	  2.0875	   2.087	  12.545
  251	  2.1780	  2.0963	   2.096	  12.595
  252	  2.1740	  2.1050	   2.105	  12.645
  253	  2.0800	  2.1125	   2.112	  12.695
  254	  2.0780	  2.1212	   2.121	  12.745
  255	  2.0820	  2.1300	   2.130	  12.795
  256	  2.0860	  2.1375	   2.138	  12.845
  257	  2.0910	  2.1463	   2.146	  12.895
  258	  2.0950	  2.1550	   2.155	  12.945
  259	  2.1000	  2.1625	   2.162	  12.995
  260	  2.1030	  2.1712	   2.171	  13.045
  261	  2.1010	  2.1800	   2.180	  13.095
  262	  2.0850	  2.1875	   2.188	  13.145
  263	  2.0690	  2.1962	   2.196	  13.195
  264	  2.0720	  2.2050	   2.205	  13.245
  265	  2.0760	  2.2125	   2.212	  13.295
  266	  2.0780	  2.2213	   2.221	  13.345
  267	  2.0800	  2.2300	   2.230	  13.395
  268	  2.0800	  2.2375	   2.237	  13.445
  269	  2.0780	  2.2462	   2.246	  13.495
  270	  2.0740	  2.2550	   2.255	  13.545
  271	  2.0660	  2.2637	   2.264	  13.595
  272	  1.9760	  2.2713	   2.271	  13.645
  273	  1.9610	  2.2800	   2.280	  13.695
  274	  1.9540	  2.2887	   2.289	  13.745
  275	  1.9480	  2.2962	   2.296	  13.795
  276	  1.9420	  2.3050	   2.305	  13.845
  277	  1.9350	  2.3138	   2.314	  13.895
  278	  1.6910	  2.3225	   2.322	  13.945
  279	  1.2610	  2.3300	   2.330	  13.995
  280	  1.2430	  2.3387	   2.339	  14.045
  281	  1.2380	  2.3475	   2.347	  14.095
  282	  1.2370	  2.3563	   2.356	  14.145
  283	  1.2350	  2.3637	   2.364	  14.195
  284	  1.2340	  2.3725	   2.372	  14.245
  285	  1.2320	  2.3812	   2.381	  14.295
  286	  1.2320	  2.3887	   2.389	  14.345
  287	  1.2290	  2.3975	   2.398	  14.395
  288	  1.2180	  2.4062	   2.406	  14.445
  289	  1.2080	  2.4150	   2.415	  14.495
  290	  1.1940	  2.4225	   2.422	  14.545
  291	  0.8720	  2.4312	   2.431	  14.595
  292	  0.5600	  2.4400	   2.440	  14.645
  293	  0.5530	  2.4488	   2.449	  14.695
  294	  0.5550	  2.4562	   2.456	  14.745
  295	  0.5570	  2.4650	   2.465	  14.795
  296	  0.5600	  2.4737	   2.474	  14.845
  297	  0.5640	  2.4813	   2.481	  14.895
  298	  0.5660	  2.4900	   2.490	  14.945
  299	  0.5700	  2.4987	   2.499	  14.995
  300	  0.5730	  2.5062	   2.506	  15.045
  301	  0.5760	  2.5150	   2.515	  15.095
  302	  0.5790	  2.5237	   2.524	  15.145
  303	  0.5820	  2.5325	   2.533	  15.195
  304	  0.5860	  2.5400	   2.540	  15.245
  305	  0.5890	  2.5487	   2.549	  15.295
  306	  0.5910	  2.5575	   2.557	  15.345
  307	  0.5940	  2.5662	   2.566	  15.395
  308	  0.5960	  2.5738	   2.574	  15.445
  309	  0.5990	  2.5825	   2.582	  15.495
  310	  0.6000	  2.5912	   2.591	  15.545
  311	  0.6030	  2.5987	   2.599	  15.595
  312	  0.6050	  2.6075	   2.607	  15.645
  313	  0.6070	  2.6163	   2.616	  15.695
  314	  0.6090	  2.6250	   2.625	  15.745
  315	  0.6100	  2.6325	   2.632	  15.795
  316	  0.6120	  2.6412	   2.641	  15.845
  317	  0.6130	  2.6500	   2.650	  15.895
  318	  0.6150	  2.6588	   2.659	  15.945
  319	  0.6160	  2.6662	   2.666	  15.995
  320	  0.6180	  2.6750	   2.675	  16.045
  321	  0.6180	  2.6837	   2.684	  16.095
  322	  0.6170	  2.6912	   2.691	  16.145
  323	  0.5990	  2.7000	   2.700	  16.195
  324	  0.4170	  2.7088	   2.709	  16.245
  325	  0.1800	  2.7162	   2.716	  16.295
  326	  0.1680	  2.7250	   2.725	  16.345
  327	  0.1630	  2.7337	   2.734	  16.395
  328	  0.1620	  2.7425	   2.742	  16.445
  329	  0.1610	  2.7500	   2.750	  16.495
  330	  0.1590	  2.7587	   2.759	  16.545
  331	  0.1570	  2.7675	   2.767	  16.595
  332	  0.1560	  2.7762	   2.776	  16.645
  333	  0.1560	  2.7837	   2.784	  16.695
  334	  0.1570	  2.7925	   2.793	  16.745
  335	  0.1560	  2.8012	   2.801	  16.795
  336	  0.1570	  2.8087	   2.809	  16.845
  337	  0.1560	  2.8175	   2.817	  16.895
  338	  0.1540	  2.8262	   2.826	  16.945
  339	  0.1500	  2.8338	   2.834	  16.995
  340	  0.1490	  2.8425	   2.842	  17.045
  341	  0.1480	  2.8512	   2.851	  17.095
  342	  0.1480	  2.8600	   2.860	  17.145
  343	  0.1480	  2.8675	   2.867	  17.195
  344	  0.1480	  2.8763	   2.876	  17.245
  345	  0.1480	  2.8850	   2.885	  17.295
  346	  0.1490	  2.8925	   2.892	  17.345
  347	  0.1480	  2.9012	   2.901	  17.395
  348	  0.1490	  2.9100	   2.910	  17.445
  349	  0.1490	  2.9188	   2.919	  17.495
  350	  0.1460	  2.9262	   2.926	  17.545
ControlMode:	0
Rate:	 10.0000
(null)
4
step	1
0
5.000000
0.000000
1
1
0.500000
2
step	2
1
5.000000
0.000000
1
1
2.000000
3
step	3
5
2.000000
0.000000
1
0
30
4
step	4
8
0.000000
0.000000
0
0
0.000000
0
2