File: Dados - Compressão/P2 - aluminio.txt
0
Diameter:	   5.00
   1.00
Area:	  19.6350
GaugeLength:	  50.00
2009-1-1
A3
001
DataNumber:	4807
index	Load(kN)	Defor(mm)	Stroke(mm)	Time(s)
    0	  0.0080	  0.0012	   0.001	   0.045
    5	  0.0400	  0.0050	   0.005	   0.295
   10	  0.1040	  0.0088	   0.009	   0.545
   15	  0.1840	  0.0137	   0.014	   0.795
   20	  0.2780	  0.0175	   0.018	   1.045
   25	  0.3860	  0.0225	   0.022	   1.295
   30	  0.5000	  0.0262	   0.026	   1.545
   35	  0.6260	  0.0300	   0.030	   1.795
   40	  0.7540	  0.0350	   0.035	   2.045
   45	  0.8920	  0.0388	   0.039	   2.295
   50	  1.0340	  0.0425	   0.043	   2.545
   55	  1.1840	  0.0463	   0.046	   2.795
   60	  1.3380	  0.0512	   0.051	   3.045
   65	  1.5000	  0.0550	   0.055	   3.295
   70	  1.6680	  0.0587	   0.059	   3.545
   75	  1.8400	  0.0637	   0.064	   3.795
   80	  2.0180	  0.0675	   0.067	   4.045
   85	  2.2000	  0.0712	   0.071	   4.295
   90	  2.3860	  0.0763	   0.076	   4.545
   95	  2.5780	  0.0800	   0.080	   4.795
  100	  2.7760	  0.0837	   0.084	   5.045
  105	  2.9800	  0.0887	   0.089	   5.295
  110	  3.1900	  0.0925	   0.093	   5.545
  115	  3.4080	  0.0962	   0.096	   5.795
  120	  3.6300	  0.1000	   0.100	   6.045
  125	  3.8600	  0.1050	   0.105	   6.295
  130	  4.0960	  0.1088	   0.109	   6.545
  135	  4.3400	  0.1125	   0.112	   6.795
  140	  4.5900	  0.1163	   0.116	   7.045
  145	  4.8480	  0.1212	   0.121	   7.295
  150	  5.1140	  0.1250	   0.125	   7.545
  155	  5.3860	  0.1287	   0.129	   7.795
  160	  5.6620	  0.1337	   0.134	   8.045
  165	  5.9440	  0.1375	   0.138	   8.295
  170	  6.2320	  0.1412	   0.141	   8.545
  175	  6.5260	  0.1450	   0.145	   8.795
  180	  6.8220	  0.1500	   0.150	   9.045
  185	  7.1240	  0.1538	   0.154	   9.295
  190	  7.4280	  0.1575	   0.157	   9.545
  195	  7.7340	  0.1625	   0.162	   9.795
  200	  8.0400	  0.1662	   0.166	  10.045
  205	  8.3340	  0.1700	   0.170	  10.295
  210	  8.6400	  0.1737	   0.174	  10.545
  215	  8.9460	  0.1787	   0.179	  10.795
  220	  9.7280	  0.1912	   0.191	  11.045
  225	 10.0280	  0.1950	   0.195	  11.295
  230	 10.3360	  0.1987	   0.199	  11.545
  235	 10.6400	  0.2025	   0.203	  11.795
  240	 10.9520	  0.2062	   0.206	  12.045
  245	 11.2560	  0.2112	   0.211	  12.295
  250	 11.5680	  0.2150	   0.215	  12.545
  255	 11.8760	  0.2188	   0.219	  12.795
  260	 12.1840	  0.2225	   0.222	  13.045
  265	 12.4880	  0.2275	   0.227	  13.295
  270	 12.7920	  0.2312	   0.231	  13.545
  275	 13.0880	  0.2350	   0.235	  13.795
  280	 13.3800	  0.2387	   0.239	  14.045
  285	 13.6680	  0.2437	   0.244	  14.295
  290	 13.9480	  0.2475	   0.247	  14.545
  295	 14.2200	  0.2512	   0.251	  14.795
  300	 14.4880	  0.2562	   0.256	  15.045
  305	 14.7520	  0.2600	   0.260	  15.295
  310	 15.0040	  0.2637	   0.264	  15.545
  315	 15.2560	  0.2687	   0.269	  15.795
  320	 15.4960	  0.2725	   0.273	  16.045
  325	 15.7320	  0.2763	   0.276	  16.295
  330	 15.9560	  0.2812	   0.281	  16.545
  335	 16.1800	  0.2850	   0.285	  16.795
  340	 16.4040	  0.2887	   0.289	  17.045
  345	 16.6240	  0.2937	   0.294	  17.295
  350	 16.8480	  0.2975	   0.297	  17.545
  355	 17.0680	  0.3012	   0.301	  17.795
  360	 17.2800	  0.3050	   0.305	  18.045
  365	 17.4920	  0.3100	   0.310	  18.295
  370	 17.6960	  0.3137	   0.314	  18.545
  375	 17.8920	  0.3175	   0.317	  18.795
  380	 18.0840	  0.3225	   0.322	  19.045
  385	 18.6600	  0.3350	   0.335	  19.295
  390	 18.8100	  0.3388	   0.339	  19.545
  395	 18.9600	  0.3425	   0.343	  19.795
  400	 19.1100	  0.3475	   0.347	  20.045
  405	 19.2400	  0.3512	   0.351	  20.295
  410	 19.3700	  0.3550	   0.355	  20.545
  415	 19.4900	  0.3600	   0.360	  20.795
  420	 19.6100	  0.3637	   0.364	  21.045
  425	 19.7200	  0.3675	   0.367	  21.295
  430	 19.8200	  0.3725	   0.373	  21.545
  435	 19.9200	  0.3762	   0.376	  21.795
  440	 20.0100	  0.3800	   0.380	  22.045
  445	 20.1000	  0.3850	   0.385	  22.295
  450	 20.1900	  0.3887	   0.389	  22.545
  455	 20.2700	  0.3925	   0.392	  22.795
  460	 20.3500	  0.3962	   0.396	  23.045
  465	 20.4200	  0.4013	   0.401	  23.295
  470	 20.5000	  0.4050	   0.405	  23.545
  475	 20.5600	  0.4087	   0.409	  23.795
  480	 20.6300	  0.4137	   0.414	  24.045
  485	 20.6900	  0.4175	   0.417	  24.295
  490	 20.7500	  0.4212	   0.421	  24.545
  495	 20.8100	  0.4262	   0.426	  24.795
  500	 20.8700	  0.4300	   0.430	  25.045
  505	 20.9200	  0.4338	   0.434	  25.295
  510	 20.9800	  0.4387	   0.439	  25.545
  515	 21.0300	  0.4425	   0.442	  25.795
  520	 21.0800	  0.4462	   0.446	  26.045
  525	 21.1300	  0.4512	   0.451	  26.295
  530	 21.1700	  0.4550	   0.455	  26.545
  535	 21.2200	  0.4587	   0.459	  26.795
  540	 21.2600	  0.4637	   0.464	  27.045
  545	 21.3000	  0.4675	   0.468	  27.295
  550	 21.3400	  0.4712	   0.471	  27.545
  555	 21.3800	  0.4762	   0.476	  27.795
  560	 21.4200	  0.4800	   0.480	  28.045
  565	 21.4600	  0.4837	   0.484	  28.295
  570	 21.5000	  0.4887	   0.489	  28.545
  575	 21.5400	  0.4925	   0.492	  28.795
  580	 21.5700	  0.4963	   0.496	  29.045
  585	 21.6100	  0.5012	   0.501	  29.295
  590	 21.6500	  0.5050	   0.505	  29.545
  595	 21.6800	  0.5087	   0.509	  29.795
  600	 21.7100	  0.5138	   0.514	  30.045
  605	 21.7500	  0.5175	   0.517	  30.295
  610	 21.7800	  0.5225	   0.522	  30.545
  615	 21.8100	  0.5263	   0.526	  30.795
  620	 21.8400	  0.5300	   0.530	  31.045
  625	 21.8800	  0.5337	   0.534	  31.295
  630	 21.9100	  0.5387	   0.539	  31.545
  635	 21.9400	  0.5425	   0.542	  31.795
  640	 21.9700	  0.5462	   0.546	  32.045
  645	 22.0000	  0.5512	   0.551	  32.295
  650	 22.0300	  0.5550	   0.555	  32.545
  655	 22.0500	  0.5600	   0.560	  32.795
  660	 22.0800	  0.5637	   0.564	  33.045
  665	 22.1100	  0.5675	   0.567	  33.295
  670	 22.1400	  0.5725	   0.572	  33.545
  675	 22.1700	  0.5763	   0.576	  33.795
  680	 22.1900	  0.5800	   0.580	  34.045
  685	 22.2200	  0.5850	   0.585	  34.295
  690	 22.2500	  0.5888	   0.589	  34.545
  695	 22.2800	  0.5925	   0.592	  34.795
  700	 22.3100	  0.5962	   0.596	  35.045
  705	 22.3400	  0.6012	   0.601	  35.295
  710	 22.3600	  0.6050	   0.605	  35.545
  715	 22.3900	  0.6100	   0.610	  35.795
  720	 22.4200	  0.6137	   0.614	  36.045
  725	 22.4400	  0.6175	   0.618	  36.295
  730	 22.4700	  0.6225	   0.623	  36.545
  735	 22.4900	  0.6262	   0.626	  36.795
  740	 22.5200	  0.6300	   0.630	  37.045
  745	 22.5400	  0.6350	   0.635	  37.295
  750	 22.5700	  0.6387	   0.639	  37.545
  755	 22.6000	  0.6425	   0.642	  37.795
  760	 22.6200	  0.6475	   0.647	  38.045
  765	 22.6400	  0.6513	   0.651	  38.295
  770	 22.6700	  0.6550	   0.655	  38.545
  775	 22.6900	  0.6600	   0.660	  38.795
  780	 22.7200	  0.6637	   0.664	  39.045
  785	 22.7400	  0.6675	   0.667	  39.295
  790	 22.7700	  0.6725	   0.673	  39.545
  795	 22.7900	  0.6762	   0.676	  39.795
  800	 22.8200	  0.6800	   0.680	  40.045
  805	 22.8400	  0.6837	   0.684	  40.295
  810	 22.8600	  0.6887	   0.689	  40.545
  815	 22.8800	  0.6925	   0.692	  40.795
  820	 22.9100	  0.6962	   0.696	  41.045
  825	 22.9300	  0.7012	   0.701	  41.295
  830	 22.9600	  0.7050	   0.705	  41.545
  835	 22.9800	  0.7088	   0.709	  41.795
  840	 23.0000	  0.7138	   0.714	  42.045
  845	 23.0300	  0.7175	   0.717	  42.295
  850	 23.0500	  0.7225	   0.722	  42.545
  855	 23.0800	  0.7262	   0.726	  42.795
  860	 23.1000	  0.7300	   0.730	  43.045
  865	 23.1200	  0.7350	   0.735	  43.295
  870	 23.1500	  0.7387	   0.739	  43.545
  875	 23.1700	  0.7425	   0.743	  43.795
  880	 23.1900	  0.7475	   0.748	  44.045
  885	 23.2100	  0.7512	   0.751	  44.295
  890	 23.2300	  0.7550	   0.755	  44.545
  895	 23.2500	  0.7600	   0.760	  44.795
  900	 23.2800	  0.7637	   0.764	  45.045
  905	 23.3000	  0.7675	   0.767	  45.295
  910	 23.3200	  0.7725	   0.772	  45.545
  915	 23.3500	  0.7763	   0.776	  45.795
  920	 23.3700	  0.7800	   0.780	  46.045
  925	 23.3900	  0.7850	   0.785	  46.295
  930	 23.4100	  0.7887	   0.789	  46.545
  935	 23.4300	  0.7925	   0.792	  46.795
  940	 23.4500	  0.7975	   0.797	  47.045
  945	 23.4800	  0.8012	   0.801	  47.295
  950	 23.5000	  0.8050	   0.805	  47.545
  955	 23.5200	  0.8100	   0.810	  47.795
  960	 23.5400	  0.8137	   0.814	  48.045
  965	 23.5600	  0.8187	   0.819	  48.295
  970	 23.5800	  0.8225	   0.822	  48.545
  975	 23.6000	  0.8262	   0.826	  48.795
  980	 23.6200	  0.8312	   0.831	  49.045
  985	 23.6500	  0.8350	   0.835	  49.295
  990	 23.6700	  0.8388	   0.839	  49.545
  995	 23.6900	  0.8438	   0.844	  49.795
 1000	 23.7100	  0.8475	   0.847	  50.045
 1005	 23.7300	  0.8512	   0.851	  50.295
 1010	 23.7500	  0.8562	   0.856	  50.545
 1015	 23.7700	  0.8600	   0.860	  50.795
 1020	 23.7900	  0.8637	   0.864	  51.045
 1025	 23.8100	  0.8687	   0.869	  51.295
 1030	 23.8300	  0.8725	   0.873	  51.545
 1035	 23.8500	  0.8762	   0.876	  51.795
 1040	 23.8700	  0.8812	   0.881	  52.045
 1045	 23.8900	  0.8850	   0.885	  52.295
 1050	 23.9100	  0.8887	   0.889	  52.545
 1055	 23.9300	  0.8937	   0.894	  52.795
 1060	 23.9500	  0.8975	   0.897	  53.045
 1065	 23.9700	  0.9025	   0.902	  53.295
 1070	 23.9900	  0.9062	   0.906	  53.545
 1075	 24.0100	  0.9100	   0.910	  53.795
 1080	 24.0300	  0.9137	   0.914	  54.045
 1085	 24.0500	  0.9187	   0.919	  54.295
 1090	 24.0600	  0.9225	   0.922	  54.545
 1095	 24.0800	  0.9275	   0.927	  54.795
 1100	 24.1000	  0.9312	   0.931	  55.045
 1105	 24.1200	  0.9350	   0.935	  55.295
 1110	 24.1400	  0.9400	   0.940	  55.545
 1115	 24.1600	  0.9437	   0.944	  55.795
 1120	 24.1800	  0.9475	   0.947	  56.045
 1125	 24.2000	  0.9525	   0.952	  56.295
 1130	 24.2100	  0.9562	   0.956	  56.545
 1135	 24.2400	  0.9600	   0.960	  56.795
 1140	 24.2500	  0.9650	   0.965	  57.045
 1145	 24.2700	  0.9688	   0.969	  57.295
 1150	 24.2900	  0.9725	   0.972	  57.545
 1155	 24.3100	  0.9762	   0.976	  57.795
 1160	 24.3300	  0.9812	   0.981	  58.045
 1165	 24.3500	  0.9850	   0.985	  58.295
 1170	 24.3600	  0.9887	   0.989	  58.545
 1175	 24.3800	  0.9937	   0.994	  58.795
 1180	 24.4000	  0.9975	   0.998	  59.045
 1185	 24.4200	  1.0025	   1.002	  59.295
 1190	 24.4300	  1.0063	   1.006	  59.545
 1195	 24.4500	  1.0100	   1.010	  59.795
 1200	 24.4700	  1.0150	   1.015	  60.045
 1205	 24.4900	  1.0187	   1.019	  60.295
 1210	 24.5100	  1.0225	   1.022	  60.545
 1215	 24.5300	  1.0275	   1.028	  60.795
 1220	 24.5400	  1.0312	   1.031	  61.045
 1225	 24.5600	  1.0350	   1.035	  61.295
 1230	 24.5800	  1.0400	   1.040	  61.545
 1235	 24.6000	  1.0437	   1.044	  61.795
 1240	 24.6100	  1.0475	   1.048	  62.045
 1245	 24.6300	  1.0525	   1.053	  62.295
 1250	 24.6500	  1.0562	   1.056	  62.545
 1255	 24.6600	  1.0612	   1.061	  62.795
 1260	 24.6800	  1.0650	   1.065	  63.045
 1265	 24.7000	  1.0688	   1.069	  63.295
 1270	 24.7100	  1.0738	   1.074	  63.545
 1275	 24.7300	  1.0775	   1.077	  63.795
 1280	 24.7500	  1.0812	   1.081	  64.045
 1285	 24.7600	  1.0862	   1.086	  64.295
 1290	 24.7800	  1.0900	   1.090	  64.545
 1295	 24.8000	  1.0938	   1.094	  64.795
 1300	 24.8200	  1.0987	   1.099	  65.045
 1305	 24.8300	  1.1025	   1.102	  65.295
 1310	 24.8500	  1.1062	   1.106	  65.545
 1315	 24.8600	  1.1112	   1.111	  65.795
 1320	 24.8800	  1.1150	   1.115	  66.045
 1325	 24.8900	  1.1187	   1.119	  66.295
 1330	 24.9100	  1.1237	   1.124	  66.545
 1335	 24.9300	  1.1275	   1.127	  66.795
 1340	 24.9400	  1.1325	   1.132	  67.045
 1345	 24.9600	  1.1363	   1.136	  67.295
 1350	 24.9800	  1.1400	   1.140	  67.545
 1355	 24.9900	  1.1450	   1.145	  67.795
 1360	 25.0100	  1.1487	   1.149	  68.045
 1365	 25.0200	  1.1525	   1.153	  68.295
 1370	 25.0400	  1.1575	   1.158	  68.545
 1375	 25.0600	  1.1612	   1.161	  68.795
 1380	 25.0700	  1.1650	   1.165	  69.045
 1385	 25.0900	  1.1700	   1.170	  69.295
 1390	 25.1000	  1.1737	   1.174	  69.545
 1395	 25.1200	  1.1775	   1.178	  69.795
 1400	 25.1300	  1.1825	   1.183	  70.045
 1405	 25.1500	  1.1862	   1.186	  70.295
 1410	 25.1700	  1.1900	   1.190	  70.545
 1415	 25.1800	  1.1950	   1.195	  70.795
 1420	 25.2000	  1.1988	   1.199	  71.045
 1425	 25.2100	  1.2025	   1.202	  71.295
 1430	 25.2200	  1.2075	   1.207	  71.545
 1435	 25.2400	  1.2112	   1.211	  71.795
 1440	 25.2500	  1.2150	   1.215	  72.045
 1445	 25.2700	  1.2200	   1.220	  72.295
 1450	 25.2800	  1.2237	   1.224	  72.545
 1455	 25.3000	  1.2275	   1.227	  72.795
 1460	 25.3200	  1.2325	   1.232	  73.045
 1465	 25.3300	  1.2362	   1.236	  73.295
 1470	 25.3400	  1.2412	   1.241	  73.545
 1475	 25.3600	  1.2450	   1.245	  73.795
 1480	 25.3700	  1.2487	   1.249	  74.045
 1485	 25.3900	  1.2537	   1.254	  74.295
 1490	 25.4000	  1.2575	   1.257	  74.545
 1495	 25.4200	  1.2613	   1.261	  74.795
 1500	 25.4300	  1.2663	   1.266	  75.045
 1505	 25.4500	  1.2700	   1.270	  75.295
 1510	 25.4600	  1.2737	   1.274	  75.545
 1515	 25.4700	  1.2787	   1.279	  75.795
 1520	 25.4900	  1.2825	   1.283	  76.045
 1525	 25.5000	  1.2862	   1.286	  76.295
 1530	 25.5200	  1.2912	   1.291	  76.545
 1535	 25.5300	  1.2950	   1.295	  76.795
 1540	 25.5400	  1.2987	   1.299	  77.045
 1545	 25.5600	  1.3037	   1.304	  77.295
 1550	 25.5700	  1.3075	   1.308	  77.545
 1555	 25.5800	  1.3125	   1.312	  77.795
 1560	 25.6000	  1.3162	   1.316	  78.045
 1565	 25.6100	  1.3200	   1.320	  78.295
 1570	 25.6300	  1.3250	   1.325	  78.545
 1575	 25.6400	  1.3288	   1.329	  78.795
 1580	 25.6500	  1.3325	   1.332	  79.045
 1585	 25.6600	  1.3375	   1.337	  79.295
 1590	 25.6800	  1.3412	   1.341	  79.545
 1595	 25.6900	  1.3450	   1.345	  79.795
 1600	 25.7100	  1.3500	   1.350	  80.045
 1605	 25.7200	  1.3537	   1.354	  80.295
 1610	 25.7300	  1.3575	   1.357	  80.545
 1615	 25.7400	  1.3625	   1.362	  80.795
 1620	 25.7600	  1.3662	   1.366	  81.045
 1625	 25.7700	  1.3700	   1.370	  81.295
 1630	 25.7700	  1.3750	   1.375	  81.545
 1635	 25.8000	  1.3787	   1.379	  81.795
 1640	 25.8100	  1.3825	   1.382	  82.045
 1645	 25.8300	  1.3875	   1.387	  82.295
 1650	 25.8400	  1.3913	   1.391	  82.545
 1655	 25.8500	  1.3950	   1.395	  82.795
 1660	 25.8700	  1.4000	   1.400	  83.045
 1665	 25.8800	  1.4037	   1.404	  83.295
 1670	 25.8900	  1.4087	   1.409	  83.545
 1675	 25.9000	  1.4125	   1.413	  83.795
 1680	 25.9200	  1.4162	   1.416	  84.045
 1685	 25.9300	  1.4212	   1.421	  84.295
 1690	 25.9400	  1.4250	   1.425	  84.545
 1695	 25.9500	  1.4287	   1.429	  84.795
 1700	 25.9700	  1.4337	   1.434	  85.045
 1705	 25.9800	  1.4375	   1.438	  85.295
 1710	 25.9900	  1.4412	   1.441	  85.545
 1715	 26.0000	  1.4462	   1.446	  85.795
 1720	 26.0100	  1.4500	   1.450	  86.045
 1725	 26.0300	  1.4538	   1.454	  86.295
 1730	 26.0400	  1.4588	   1.459	  86.545
 1735	 26.0500	  1.4625	   1.462	  86.795
 1740	 26.0600	  1.4662	   1.466	  87.045
 1745	 26.0800	  1.4712	   1.471	  87.295
 1750	 26.0800	  1.4750	   1.475	  87.545
 1755	 26.1000	  1.4787	   1.479	  87.795
 1760	 26.1100	  1.4837	   1.484	  88.045
 1765	 26.1200	  1.4875	   1.487	  88.295
 1770	 26.1400	  1.4912	   1.491	  88.545
 1775	 26.1500	  1.4962	   1.496	  88.795
 1780	 26.1600	  1.5000	   1.500	  89.045
 1785	 26.1700	  1.5037	   1.504	  89.295
 1790	 26.1900	  1.5087	   1.509	  89.545
 1795	 26.2000	  1.5125	   1.512	  89.795
 1800	 26.2100	  1.5163	   1.516	  90.045
 1805	 26.2200	  1.5213	   1.521	  90.295
 1810	 26.2300	  1.5250	   1.525	  90.545
 1815	 26.2400	  1.5287	   1.529	  90.795
 1820	 26.2600	  1.5337	   1.534	  91.045
 1825	 26.2700	  1.5375	   1.538	  91.295
 1830	 26.2800	  1.5412	   1.541	  91.545
 1835	 26.2900	  1.5462	   1.546	  91.795
 1840	 26.3100	  1.5500	   1.550	  92.045
 1845	 26.3200	  1.5537	   1.554	  92.295
 1850	 26.3300	  1.5587	   1.559	  92.545
 1855	 26.3400	  1.5625	   1.562	  92.795
 1860	 26.3500	  1.5662	   1.566	  93.045
 1865	 26.3600	  1.5712	   1.571	  93.295
 1870	 26.3800	  1.5750	   1.575	  93.545
 1875	 26.3800	  1.5800	   1.580	  93.795
 1880	 26.4000	  1.5838	   1.584	  94.045
 1885	 26.4100	  1.5875	   1.587	  94.295
 1890	 26.4200	  1.5925	   1.592	  94.545
 1895	 26.4300	  1.5962	   1.596	  94.795
 1900	 26.4400	  1.6000	   1.600	  95.045
 1905	 26.4500	  1.6050	   1.605	  95.295
 1910	 26.4700	  1.6087	   1.609	  95.545
 1915	 26.4800	  1.6125	   1.612	  95.795
 1920	 26.4900	  1.6175	   1.617	  96.045
 1925	 26.5000	  1.6212	   1.621	  96.295
 1930	 26.5100	  1.6262	   1.626	  96.545
 1935	 26.5200	  1.6300	   1.630	  96.795
 1940	 26.5300	  1.6337	   1.634	  97.045
 1945	 26.5400	  1.6387	   1.639	  97.295
 1950	 26.5500	  1.6425	   1.642	  97.545
 1955	 26.5700	  1.6463	   1.646	  97.795
 1960	 26.5800	  1.6513	   1.651	  98.045
 1965	 26.5900	  1.6550	   1.655	  98.295
 1970	 26.6000	  1.6587	   1.659	  98.545
 1975	 26.6100	  1.6637	   1.664	  98.795
 1980	 26.6200	  1.6675	   1.668	  99.045
 1985	 26.6300	  1.6712	   1.671	  99.295
 1990	 26.6400	  1.6762	   1.676	  99.545
 1995	 26.6500	  1.6800	   1.680	  99.795
 2000	 26.6600	  1.6837	   1.684	 100.045
 2005	 26.6800	  1.6887	   1.689	 100.295
 2010	 26.6800	  1.6925	   1.692	 100.545
 2015	 26.6900	  1.6962	   1.696	 100.795
 2020	 26.7000	  1.7012	   1.701	 101.045
 2025	 26.7100	  1.7050	   1.705	 101.295
 2030	 26.7200	  1.7088	   1.709	 101.545
 2035	 26.7400	  1.7138	   1.714	 101.795
 2040	 26.7500	  1.7175	   1.717	 102.045
 2045	 26.7600	  1.7225	   1.722	 102.295
 2050	 26.7700	  1.7262	   1.726	 102.545
 2055	 26.7800	  1.7300	   1.730	 102.795
 2060	 26.7900	  1.7350	   1.735	 103.045
 2065	 26.8000	  1.7387	   1.739	 103.295
 2070	 26.8100	  1.7425	   1.742	 103.545
 2075	 26.8200	  1.7475	   1.747	 103.795
 2080	 26.8300	  1.7512	   1.751	 104.045
 2085	 26.8400	  1.7550	   1.755	 104.295
 2090	 26.8500	  1.7600	   1.760	 104.545
 2095	 26.8600	  1.7637	   1.764	 104.795
 2100	 26.8700	  1.7675	   1.767	 105.045
 2105	 26.8800	  1.7725	   1.772	 105.295
 2110	 26.8900	  1.7763	   1.776	 105.545
 2115	 26.9000	  1.7800	   1.780	 105.795
 2120	 26.9100	  1.7837	   1.784	 106.045
 2125	 26.9200	  1.7887	   1.789	 106.295
 2130	 26.9400	  1.7925	   1.793	 106.545
 2135	 26.9400	  1.7962	   1.796	 106.795
 2140	 26.9500	  1.8012	   1.801	 107.045
 2145	 26.9600	  1.8050	   1.805	 107.295
 2150	 26.9700	  1.8100	   1.810	 107.545
 2155	 26.9800	  1.8137	   1.814	 107.795
 2160	 26.9900	  1.8175	   1.817	 108.045
 2165	 27.0100	  1.8225	   1.822	 108.295
 2170	 27.0200	  1.8262	   1.826	 108.545
 2175	 27.0300	  1.8300	   1.830	 108.795
 2180	 27.0400	  1.8350	   1.835	 109.045
 2185	 27.0500	  1.8388	   1.839	 109.295
 2190	 27.0600	  1.8425	   1.842	 109.545
 2195	 27.0700	  1.8475	   1.847	 109.795
 2200	 27.0800	  1.8512	   1.851	 110.045
 2205	 27.0900	  1.8562	   1.856	 110.295
 2210	 27.1000	  1.8600	   1.860	 110.545
 2215	 27.1100	  1.8637	   1.864	 110.795
 2220	 27.1200	  1.8687	   1.869	 111.045
 2225	 27.1300	  1.8725	   1.872	 111.295
 2230	 27.1300	  1.8762	   1.876	 111.545
 2235	 27.1500	  1.8812	   1.881	 111.795
 2240	 27.1500	  1.8850	   1.885	 112.045
 2245	 27.1600	  1.8887	   1.889	 112.295
 2250	 27.1700	  1.8937	   1.894	 112.545
 2255	 27.1800	  1.8975	   1.897	 112.795
 2260	 27.1900	  1.9025	   1.902	 113.045
 2265	 27.2000	  1.9062	   1.906	 113.295
 2270	 27.2100	  1.9100	   1.910	 113.545
 2275	 27.2200	  1.9137	   1.914	 113.795
 2280	 27.2300	  1.9187	   1.919	 114.045
 2285	 27.2400	  1.9225	   1.923	 114.295
 2290	 27.2500	  1.9262	   1.926	 114.545
 2295	 27.2600	  1.9312	   1.931	 114.795
 2300	 27.2700	  1.9350	   1.935	 115.045
 2305	 27.2800	  1.9387	   1.939	 115.295
 2310	 27.2900	  1.9437	   1.944	 115.545
 2315	 27.3000	  1.9475	   1.947	 115.795
 2320	 27.3100	  1.9525	   1.952	 116.045
 2325	 27.3200	  1.9562	   1.956	 116.295
 2330	 27.3300	  1.9600	   1.960	 116.545
 2335	 27.3400	  1.9650	   1.965	 116.795
 2340	 27.3500	  1.9688	   1.969	 117.045
 2345	 27.3600	  1.9725	   1.972	 117.295
 2350	 27.3700	  1.9775	   1.977	 117.545
 2355	 27.3800	  1.9812	   1.981	 117.795
 2360	 27.3900	  1.9850	   1.985	 118.045
 2365	 27.4000	  1.9900	   1.990	 118.295
 2370	 27.4100	  1.9937	   1.994	 118.545
 2375	 27.4200	  1.9975	   1.997	 118.795
 2380	 27.4300	  2.0025	   2.003	 119.045
 2385	 27.4400	  2.0062	   2.006	 119.295
 2390	 27.4500	  2.0100	   2.010	 119.545
 2395	 27.4600	  2.0150	   2.015	 119.795
 2400	 27.4600	  2.0187	   2.019	 120.045
 2405	 27.4700	  2.0225	   2.023	 120.295
 2410	 27.4900	  2.0275	   2.027	 120.545
 2415	 27.4900	  2.0312	   2.031	 120.795
 2420	 27.5000	  2.0350	   2.035	 121.045
 2425	 27.5100	  2.0400	   2.040	 121.295
 2430	 27.5200	  2.0438	   2.044	 121.545
 2435	 27.5300	  2.0475	   2.047	 121.795
 2440	 27.5400	  2.0525	   2.053	 122.045
 2445	 27.5500	  2.0562	   2.056	 122.295
 2450	 27.5600	  2.0600	   2.060	 122.545
 2455	 27.5700	  2.0650	   2.065	 122.795
 2460	 27.5800	  2.0687	   2.069	 123.045
 2465	 27.5900	  2.0738	   2.074	 123.295
 2470	 27.6000	  2.0775	   2.077	 123.545
 2475	 27.6100	  2.0812	   2.081	 123.795
 2480	 27.6100	  2.0863	   2.086	 124.045
 2485	 27.6300	  2.0900	   2.090	 124.295
 2490	 27.6400	  2.0938	   2.094	 124.545
 2495	 27.6500	  2.0987	   2.099	 124.795
 2500	 27.6500	  2.1025	   2.102	 125.045
 2505	 27.6700	  2.1063	   2.106	 125.295
 2510	 27.6700	  2.1112	   2.111	 125.545
 2515	 27.6800	  2.1150	   2.115	 125.795
 2520	 27.6900	  2.1187	   2.119	 126.045
 2525	 27.7000	  2.1237	   2.124	 126.295
 2530	 27.7100	  2.1275	   2.128	 126.545
 2535	 27.7200	  2.1325	   2.132	 126.795
 2540	 27.7300	  2.1363	   2.136	 127.045
 2545	 27.7400	  2.1400	   2.140	 127.295
 2550	 27.7500	  2.1450	   2.145	 127.545
 2555	 27.7600	  2.1488	   2.149	 127.795
 2560	 27.7600	  2.1525	   2.152	 128.045
 2565	 27.7800	  2.1575	   2.158	 128.295
 2570	 27.7800	  2.1612	   2.161	 128.545
 2575	 27.7900	  2.1662	   2.166	 128.795
 2580	 27.8000	  2.1700	   2.170	 129.045
 2585	 27.8100	  2.1737	   2.174	 129.295
 2590	 27.8200	  2.1775	   2.178	 129.545
 2595	 27.8300	  2.1825	   2.182	 129.795
 2600	 27.8400	  2.1862	   2.186	 130.045
 2605	 27.8500	  2.1900	   2.190	 130.295
 2610	 27.8600	  2.1950	   2.195	 130.545
 2615	 27.8700	  2.1988	   2.199	 130.795
 2620	 27.8800	  2.2025	   2.202	 131.045
 2625	 27.8900	  2.2075	   2.207	 131.295
 2630	 27.9000	  2.2113	   2.211	 131.545
 2635	 27.9000	  2.2150	   2.215	 131.795
 2640	 27.9100	  2.2200	   2.220	 132.045
 2645	 27.9200	  2.2237	   2.224	 132.295
 2650	 27.9300	  2.2287	   2.229	 132.545
 2655	 27.9400	  2.2325	   2.232	 132.795
 2660	 27.9500	  2.2362	   2.236	 133.045
 2665	 27.9600	  2.2413	   2.241	 133.295
 2670	 27.9700	  2.2450	   2.245	 133.545
 2675	 27.9800	  2.2487	   2.249	 133.795
 2680	 27.9800	  2.2537	   2.254	 134.045
 2685	 28.0000	  2.2575	   2.257	 134.295
 2690	 28.0000	  2.2613	   2.261	 134.545
 2695	 28.0100	  2.2662	   2.266	 134.795
 2700	 28.0200	  2.2700	   2.270	 135.045
 2705	 28.0300	  2.2738	   2.274	 135.295
 2710	 28.0400	  2.2787	   2.279	 135.545
 2715	 28.0500	  2.2825	   2.283	 135.795
 2720	 28.0600	  2.2862	   2.286	 136.045
 2725	 28.0700	  2.2912	   2.291	 136.295
 2730	 28.0800	  2.2950	   2.295	 136.545
 2735	 28.0900	  2.2987	   2.299	 136.795
 2740	 28.1000	  2.3038	   2.304	 137.045
 2745	 28.1000	  2.3075	   2.307	 137.295
 2750	 28.1200	  2.3125	   2.312	 137.545
 2755	 28.1200	  2.3162	   2.316	 137.795
 2760	 28.1300	  2.3200	   2.320	 138.045
 2765	 28.1400	  2.3238	   2.324	 138.295
 2770	 28.1500	  2.3287	   2.329	 138.545
 2775	 28.1600	  2.3325	   2.332	 138.795
 2780	 28.1700	  2.3363	   2.336	 139.045
 2785	 28.1800	  2.3412	   2.341	 139.295
 2790	 28.1900	  2.3450	   2.345	 139.545
 2795	 28.2000	  2.3487	   2.349	 139.795
 2800	 28.2000	  2.3537	   2.354	 140.045
 2805	 28.2100	  2.3575	   2.357	 140.295
 2810	 28.2200	  2.3612	   2.361	 140.545
 2815	 28.2300	  2.3663	   2.366	 140.795
 2820	 28.2400	  2.3700	   2.370	 141.045
 2825	 28.2500	  2.3737	   2.374	 141.295
 2830	 28.2600	  2.3787	   2.379	 141.545
 2835	 28.2700	  2.3825	   2.382	 141.795
 2840	 28.2800	  2.3863	   2.386	 142.045
 2845	 28.2900	  2.3912	   2.391	 142.295
 2850	 28.3000	  2.3950	   2.395	 142.545
 2855	 28.3000	  2.3987	   2.399	 142.795
 2860	 28.3100	  2.4037	   2.404	 143.045
 2865	 28.3200	  2.4075	   2.408	 143.295
 2870	 28.3300	  2.4125	   2.412	 143.545
 2875	 28.3400	  2.4162	   2.416	 143.795
 2880	 28.3500	  2.4200	   2.420	 144.045
 2885	 28.3600	  2.4250	   2.425	 144.295
 2890	 28.3700	  2.4288	   2.429	 144.545
 2895	 28.3800	  2.4325	   2.432	 144.795
 2900	 28.3900	  2.4375	   2.438	 145.045
 2905	 28.4000	  2.4412	   2.441	 145.295
 2910	 28.4000	  2.4450	   2.445	 145.545
 2915	 28.4100	  2.4500	   2.450	 145.795
 2920	 28.4200	  2.4537	   2.454	 146.045
 2925	 28.4300	  2.4575	   2.457	 146.295
 2930	 28.4400	  2.4625	   2.462	 146.545
 2935	 28.4500	  2.4662	   2.466	 146.795
 2940	 28.4600	  2.4700	   2.470	 147.045
 2945	 28.4600	  2.4750	   2.475	 147.295
 2950	 28.4700	  2.4787	   2.479	 147.545
 2955	 28.4800	  2.4825	   2.482	 147.795
 2960	 28.4900	  2.4875	   2.487	 148.045
 2965	 28.5000	  2.4913	   2.491	 148.295
 2970	 28.5100	  2.4950	   2.495	 148.545
 2975	 28.5200	  2.5000	   2.500	 148.795
 2980	 28.5200	  2.5037	   2.504	 149.045
 2985	 28.5400	  2.5075	   2.507	 149.295
 2990	 28.5500	  2.5125	   2.513	 149.545
 2995	 28.5500	  2.5162	   2.516	 149.795
 3000	 28.5600	  2.5200	   2.520	 150.045
 3005	 28.5700	  2.5250	   2.525	 150.295
 3010	 28.5900	  2.5287	   2.529	 150.545
 3015	 28.5900	  2.5325	   2.533	 150.795
 3020	 28.6000	  2.5375	   2.537	 151.045
 3025	 28.6100	  2.5412	   2.541	 151.295
 3030	 28.6200	  2.5450	   2.545	 151.545
 3035	 28.6300	  2.5500	   2.550	 151.795
 3040	 28.6400	  2.5538	   2.554	 152.045
 3045	 28.6400	  2.5575	   2.557	 152.295
 3050	 28.6500	  2.5625	   2.562	 152.545
 3055	 28.6600	  2.5662	   2.566	 152.795
 3060	 28.6700	  2.5700	   2.570	 153.045
 3065	 28.6800	  2.5750	   2.575	 153.295
 3070	 28.6900	  2.5787	   2.579	 153.545
 3075	 28.7000	  2.5825	   2.582	 153.795
 3080	 28.7000	  2.5862	   2.586	 154.045
 3085	 28.7200	  2.5912	   2.591	 154.295
 3090	 28.7200	  2.5950	   2.595	 154.545
 3095	 28.7300	  2.6000	   2.600	 154.795
 3100	 28.7400	  2.6037	   2.604	 155.045
 3105	 28.7500	  2.6075	   2.607	 155.295
 3110	 28.7600	  2.6125	   2.612	 155.545
 3115	 28.7700	  2.6163	   2.616	 155.795
 3120	 28.7800	  2.6200	   2.620	 156.045
 3125	 28.7900	  2.6250	   2.625	 156.295
 3130	 28.8000	  2.6287	   2.629	 156.545
 3135	 28.8100	  2.6325	   2.632	 156.795
 3140	 28.8200	  2.6375	   2.638	 157.045
 3145	 28.8200	  2.6412	   2.641	 157.295
 3150	 28.8300	  2.6450	   2.645	 157.545
 3155	 28.8400	  2.6500	   2.650	 157.795
 3160	 28.8500	  2.6537	   2.654	 158.045
 3165	 28.8600	  2.6575	   2.658	 158.295
 3170	 28.8600	  2.6625	   2.662	 158.545
 3175	 28.8800	  2.6662	   2.666	 158.795
 3180	 28.8900	  2.6712	   2.671	 159.045
 3185	 28.9000	  2.6750	   2.675	 159.295
 3190	 28.9000	  2.6788	   2.679	 159.545
 3195	 28.9100	  2.6825	   2.682	 159.795
 3200	 28.9200	  2.6875	   2.688	 160.045
 3205	 28.9300	  2.6912	   2.691	 160.295
 3210	 28.9400	  2.6962	   2.696	 160.545
 3215	 28.9500	  2.7000	   2.700	 160.795
 3220	 28.9600	  2.7037	   2.704	 161.045
 3225	 28.9600	  2.7088	   2.709	 161.295
 3230	 28.9800	  2.7125	   2.712	 161.545
 3235	 28.9800	  2.7162	   2.716	 161.795
 3240	 28.9900	  2.7213	   2.721	 162.045
 3245	 29.0000	  2.7250	   2.725	 162.295
 3250	 29.0100	  2.7287	   2.729	 162.545
 3255	 29.0200	  2.7337	   2.734	 162.795
 3260	 29.0300	  2.7375	   2.737	 163.045
 3265	 29.0400	  2.7413	   2.741	 163.295
 3270	 29.0500	  2.7462	   2.746	 163.545
 3275	 29.0500	  2.7500	   2.750	 163.795
 3280	 29.0600	  2.7537	   2.754	 164.045
 3285	 29.0700	  2.7587	   2.759	 164.295
 3290	 29.0800	  2.7625	   2.763	 164.545
 3295	 29.0900	  2.7662	   2.766	 164.795
 3300	 29.1000	  2.7700	   2.770	 165.045
 3305	 29.1100	  2.7750	   2.775	 165.295
 3310	 29.1100	  2.7787	   2.779	 165.545
 3315	 29.1200	  2.7825	   2.783	 165.795
 3320	 29.1300	  2.7875	   2.787	 166.045
 3325	 29.1400	  2.7912	   2.791	 166.295
 3330	 29.1500	  2.7950	   2.795	 166.545
 3335	 29.1600	  2.8000	   2.800	 166.795
 3340	 29.1700	  2.8038	   2.804	 167.045
 3345	 29.1800	  2.8075	   2.807	 167.295
 3350	 29.1900	  2.8125	   2.812	 167.545
 3355	 29.2000	  2.8162	   2.816	 167.795
 3360	 29.2000	  2.8200	   2.820	 168.045
 3365	 29.2200	  2.8250	   2.825	 168.295
 3370	 29.2200	  2.8287	   2.829	 168.545
 3375	 29.2400	  2.8338	   2.834	 168.795
 3380	 29.2400	  2.8375	   2.837	 169.045
 3385	 29.2500	  2.8412	   2.841	 169.295
 3390	 29.2600	  2.8462	   2.846	 169.545
 3395	 29.2700	  2.8500	   2.850	 169.795
 3400	 29.2800	  2.8537	   2.854	 170.045
 3405	 29.2900	  2.8587	   2.859	 170.295
 3410	 29.3000	  2.8625	   2.862	 170.545
 3415	 29.3000	  2.8663	   2.866	 170.795
 3420	 29.3100	  2.8712	   2.871	 171.045
 3425	 29.3200	  2.8750	   2.875	 171.295
 3430	 29.3300	  2.8787	   2.879	 171.545
 3435	 29.3400	  2.8837	   2.884	 171.795
 3440	 29.3500	  2.8875	   2.888	 172.045
 3445	 29.3600	  2.8912	   2.891	 172.295
 3450	 29.3700	  2.8963	   2.896	 172.545
 3455	 29.3800	  2.9000	   2.900	 172.795
 3460	 29.3900	  2.9037	   2.904	 173.045
 3465	 29.3900	  2.9087	   2.909	 173.295
 3470	 29.4000	  2.9125	   2.912	 173.545
 3475	 29.4100	  2.9162	   2.916	 173.795
 3480	 29.4200	  2.9212	   2.921	 174.045
 3485	 29.4300	  2.9250	   2.925	 174.295
 3490	 29.4400	  2.9288	   2.929	 174.545
 3495	 29.4500	  2.9325	   2.932	 174.795
 3500	 29.4600	  2.9375	   2.938	 175.045
 3505	 29.4700	  2.9412	   2.941	 175.295
 3510	 29.4800	  2.9462	   2.946	 175.545
 3515	 29.4800	  2.9500	   2.950	 175.795
 3520	 29.5000	  2.9537	   2.954	 176.045
 3525	 29.5000	  2.9588	   2.959	 176.295
 3530	 29.5100	  2.9625	   2.962	 176.545
 3535	 29.5200	  2.9662	   2.966	 176.795
 3540	 29.5300	  2.9712	   2.971	 177.045
 3545	 29.5400	  2.9750	   2.975	 177.295
 3550	 29.5500	  2.9787	   2.979	 177.545
 3555	 29.5500	  2.9825	   2.982	 177.795
 3560	 29.5700	  2.9875	   2.987	 178.045
 3565	 29.5700	  2.9913	   2.991	 178.295
 3570	 29.5800	  2.9950	   2.995	 178.545
 3575	 29.5900	  3.0000	   3.000	 178.795
 3580	 29.6000	  3.0037	   3.004	 179.045
 3585	 29.6100	  3.0075	   3.007	 179.295
 3590	 29.6200	  3.0113	   3.011	 179.545
 3595	 29.6300	  3.0162	   3.016	 179.795
 3600	 29.6400	  3.0200	   3.020	 180.045
 3605	 29.6500	  3.0237	   3.024	 180.295
 3610	 29.6500	  3.0287	   3.029	 180.545
 3615	 29.6700	  3.0325	   3.033	 180.795
 3620	 29.6700	  3.0362	   3.036	 181.045
 3625	 29.6800	  3.0412	   3.041	 181.295
 3630	 29.6900	  3.0450	   3.045	 181.545
 3635	 29.6800	  3.0487	   3.049	 181.795
 3640	 29.7100	  3.0538	   3.054	 182.045
 3645	 29.7200	  3.0575	   3.057	 182.295
 3650	 29.7300	  3.0612	   3.061	 182.545
 3655	 29.7400	  3.0662	   3.066	 182.795
 3660	 29.7500	  3.0700	   3.070	 183.045
 3665	 29.7600	  3.0738	   3.074	 183.295
 3670	 29.7700	  3.0787	   3.079	 183.545
 3675	 29.7800	  3.0825	   3.082	 183.795
 3680	 29.7900	  3.0862	   3.086	 184.045
 3685	 29.7900	  3.0912	   3.091	 184.295
 3690	 29.8000	  3.0950	   3.095	 184.545
 3695	 29.8100	  3.0987	   3.099	 184.795
 3700	 29.8200	  3.1037	   3.104	 185.045
 3705	 29.8300	  3.1075	   3.107	 185.295
 3710	 29.8400	  3.1125	   3.112	 185.545
 3715	 29.8400	  3.1163	   3.116	 185.795
 3720	 29.8600	  3.1200	   3.120	 186.045
 3725	 29.8600	  3.1250	   3.125	 186.295
 3730	 29.8700	  3.1287	   3.129	 186.545
 3735	 29.8800	  3.1325	   3.132	 186.795
 3740	 29.8900	  3.1375	   3.138	 187.045
 3745	 29.8900	  3.1412	   3.141	 187.295
 3750	 29.9100	  3.1450	   3.145	 187.545
 3755	 29.9200	  3.1500	   3.150	 187.795
 3760	 29.9300	  3.1537	   3.154	 188.045
 3765	 29.9300	  3.1575	   3.158	 188.295
 3770	 29.9500	  3.1625	   3.162	 188.545
 3775	 29.9500	  3.1662	   3.166	 188.795
 3780	 29.9600	  3.1700	   3.170	 189.045
 3785	 29.9700	  3.1750	   3.175	 189.295
 3790	 29.9800	  3.1788	   3.179	 189.545
 3795	 29.9900	  3.1825	   3.182	 189.795
 3800	 30.0000	  3.1875	   3.188	 190.045
 3805	 30.0100	  3.1912	   3.191	 190.295
 3810	 30.0200	  3.1950	   3.195	 190.545
 3815	 30.0300	  3.2000	   3.200	 190.795
 3820	 30.0400	  3.2037	   3.204	 191.045
 3825	 30.0500	  3.2075	   3.207	 191.295
 3830	 30.0500	  3.2125	   3.212	 191.545
 3835	 30.0700	  3.2162	   3.216	 191.795
 3840	 30.0800	  3.2212	   3.221	 192.045
 3845	 30.0800	  3.2250	   3.225	 192.295
 3850	 30.0900	  3.2287	   3.229	 192.545
 3855	 30.1000	  3.2337	   3.234	 192.795
 3860	 30.1100	  3.2375	   3.237	 193.045
 3865	 30.1200	  3.2413	   3.241	 193.295
 3870	 30.1300	  3.2462	   3.246	 193.545
 3875	 30.1400	  3.2500	   3.250	 193.795
 3880	 30.1500	  3.2537	   3.254	 194.045
 3885	 30.1600	  3.2587	   3.259	 194.295
 3890	 30.1600	  3.2625	   3.262	 194.545
 3895	 30.1700	  3.2662	   3.266	 194.795
 3900	 30.1800	  3.2713	   3.271	 195.045
 3905	 30.1900	  3.2750	   3.275	 195.295
 3910	 30.2000	  3.2787	   3.279	 195.545
 3915	 30.2100	  3.2837	   3.284	 195.795
 3920	 30.2200	  3.2875	   3.287	 196.045
 3925	 30.2300	  3.2912	   3.291	 196.295
 3930	 30.2400	  3.2962	   3.296	 196.545
 3935	 30.2500	  3.3000	   3.300	 196.795
 3940	 30.2600	  3.3038	   3.304	 197.045
 3945	 30.2700	  3.3087	   3.309	 197.295
 3950	 30.2700	  3.3125	   3.312	 197.545
 3955	 30.2900	  3.3162	   3.316	 197.795
 3960	 30.2900	  3.3212	   3.321	 198.045
 3965	 30.3000	  3.3250	   3.325	 198.295
 3970	 30.3100	  3.3287	   3.329	 198.545
 3975	 30.3200	  3.3338	   3.334	 198.795
 3980	 30.3300	  3.3375	   3.337	 199.045
 3985	 30.3400	  3.3412	   3.341	 199.295
 3990	 30.3500	  3.3462	   3.346	 199.545
 3995	 30.3600	  3.3500	   3.350	 199.795
 4000	 30.3700	  3.3537	   3.354	 200.045
 4005	 30.3700	  3.3587	   3.359	 200.295
 4010	 30.3900	  3.3625	   3.362	 200.545
 4015	 30.3900	  3.3663	   3.366	 200.795
 4020	 30.4000	  3.3712	   3.371	 201.045
 4025	 30.4100	  3.3750	   3.375	 201.295
 4030	 30.4200	  3.3787	   3.379	 201.545
 4035	 30.4300	  3.3837	   3.384	 201.795
 4040	 30.4400	  3.3875	   3.387	 202.045
 4045	 30.4500	  3.3912	   3.391	 202.295
 4050	 30.4600	  3.3963	   3.396	 202.545
 4055	 30.4700	  3.4000	   3.400	 202.795
 4060	 30.4800	  3.4037	   3.404	 203.045
 4065	 30.4900	  3.4087	   3.409	 203.295
 4070	 30.5000	  3.4125	   3.412	 203.545
 4075	 30.5100	  3.4162	   3.416	 203.795
 4080	 30.5200	  3.4212	   3.421	 204.045
 4085	 30.5300	  3.4250	   3.425	 204.295
 4090	 30.5300	  3.4288	   3.429	 204.545
 4095	 30.5400	  3.4337	   3.434	 204.795
 4100	 30.5500	  3.4375	   3.438	 205.045
 4105	 30.5600	  3.4412	   3.441	 205.295
 4110	 30.5700	  3.4462	   3.446	 205.545
 4115	 30.5800	  3.4500	   3.450	 205.795
 4120	 30.5900	  3.4537	   3.454	 206.045
 4125	 30.6000	  3.4588	   3.459	 206.295
 4130	 30.6100	  3.4625	   3.462	 206.545
 4135	 30.6200	  3.4662	   3.466	 206.795
 4140	 30.6300	  3.4712	   3.471	 207.045
 4145	 30.6300	  3.4750	   3.475	 207.295
 4150	 30.6400	  3.4787	   3.479	 207.545
 4155	 30.6500	  3.4837	   3.484	 207.795
 4160	 30.6600	  3.4875	   3.487	 208.045
 4165	 30.6700	  3.4913	   3.491	 208.295
 4170	 30.6800	  3.4962	   3.496	 208.545
 4175	 30.6900	  3.5000	   3.500	 208.795
 4180	 30.7000	  3.5037	   3.504	 209.045
 4185	 30.7100	  3.5087	   3.509	 209.295
 4190	 30.7200	  3.5125	   3.512	 209.545
 4195	 30.7300	  3.5162	   3.516	 209.795
 4200	 30.7400	  3.5213	   3.521	 210.045
 4205	 30.7500	  3.5250	   3.525	 210.295
 4210	 30.7600	  3.5287	   3.529	 210.545
 4215	 30.7700	  3.5337	   3.534	 210.795
 4220	 30.7700	  3.5375	   3.537	 211.045
 4225	 30.7800	  3.5412	   3.541	 211.295
 4230	 30.7900	  3.5462	   3.546	 211.545
 4235	 30.8000	  3.5500	   3.550	 211.795
 4240	 30.8100	  3.5538	   3.554	 212.045
 4245	 30.8200	  3.5587	   3.559	 212.295
 4250	 30.8300	  3.5625	   3.562	 212.545
 4255	 30.8400	  3.5662	   3.566	 212.795
 4260	 30.8500	  3.5700	   3.570	 213.045
 4265	 30.8600	  3.5750	   3.575	 213.295
 4270	 30.8700	  3.5787	   3.579	 213.545
 4275	 30.8700	  3.5825	   3.582	 213.795
 4280	 30.8900	  3.5875	   3.587	 214.045
 4285	 30.8900	  3.5912	   3.591	 214.295
 4290	 30.9100	  3.5950	   3.595	 214.545
 4295	 30.9100	  3.6000	   3.600	 214.795
 4300	 30.9300	  3.6037	   3.604	 215.045
 4305	 30.9300	  3.6075	   3.607	 215.295
 4310	 30.9400	  3.6125	   3.612	 215.545
 4315	 30.9500	  3.6163	   3.616	 215.795
 4320	 30.9600	  3.6200	   3.620	 216.045
 4325	 30.9700	  3.6250	   3.625	 216.295
 4330	 30.9800	  3.6287	   3.629	 216.545
 4335	 30.9900	  3.6325	   3.632	 216.795
 4340	 31.0000	  3.6375	   3.637	 217.045
 4345	 31.0100	  3.6412	   3.641	 217.295
 4350	 31.0200	  3.6450	   3.645	 217.545
 4355	 31.0300	  3.6500	   3.650	 217.795
 4360	 31.0400	  3.6537	   3.654	 218.045
 4365	 31.0500	  3.6587	   3.659	 218.295
 4370	 31.0600	  3.6625	   3.662	 218.545
 4375	 31.0700	  3.6662	   3.666	 218.795
 4380	 31.0700	  3.6712	   3.671	 219.045
 4385	 31.0900	  3.6750	   3.675	 219.295
 4390	 31.0900	  3.6787	   3.679	 219.545
 4395	 31.1000	  3.6837	   3.684	 219.795
 4400	 31.1100	  3.6875	   3.688	 220.045
 4405	 31.1200	  3.6912	   3.691	 220.295
 4410	 31.1300	  3.6962	   3.696	 220.545
 4415	 31.1400	  3.7000	   3.700	 220.795
 4420	 31.1500	  3.7037	   3.704	 221.045
 4425	 31.1600	  3.7088	   3.709	 221.295
 4430	 31.1600	  3.7125	   3.712	 221.545
 4435	 31.1800	  3.7162	   3.716	 221.795
 4440	 31.1800	  3.7212	   3.721	 222.045
 4445	 31.1900	  3.7250	   3.725	 222.295
 4450	 31.2100	  3.7287	   3.729	 222.545
 4455	 31.2200	  3.7325	   3.732	 222.795
 4460	 31.2200	  3.7375	   3.737	 223.045
 4465	 31.2400	  3.7412	   3.741	 223.295
 4470	 31.2500	  3.7450	   3.745	 223.545
 4475	 31.2600	  3.7500	   3.750	 223.795
 4480	 31.2700	  3.7537	   3.754	 224.045
 4485	 31.2700	  3.7575	   3.757	 224.295
 4490	 31.2900	  3.7625	   3.762	 224.545
 4495	 31.2900	  3.7662	   3.766	 224.795
 4500	 31.3100	  3.7700	   3.770	 225.045
 4505	 31.3100	  3.7750	   3.775	 225.295
 4510	 31.3200	  3.7787	   3.779	 225.545
 4515	 31.3300	  3.7825	   3.783	 225.795
 4520	 31.3400	  3.7875	   3.787	 226.045
 4525	 31.3500	  3.7912	   3.791	 226.295
 4530	 31.3600	  3.7962	   3.796	 226.545
 4535	 31.3700	  3.8000	   3.800	 226.795
 4540	 31.3800	  3.8037	   3.804	 227.045
 4545	 31.3900	  3.8087	   3.809	 227.295
 4550	 31.4000	  3.8125	   3.812	 227.545
 4555	 31.4100	  3.8162	   3.816	 227.795
 4560	 31.4200	  3.8212	   3.821	 228.045
 4565	 31.4200	  3.8250	   3.825	 228.295
 4570	 31.4300	  3.8287	   3.829	 228.545
 4575	 31.4400	  3.8325	   3.832	 228.795
 4580	 31.4500	  3.8375	   3.837	 229.045
 4585	 31.4600	  3.8412	   3.841	 229.295
 4590	 31.4700	  3.8462	   3.846	 229.545
 4595	 31.4800	  3.8500	   3.850	 229.795
 4600	 31.4900	  3.8537	   3.854	 230.045
 4605	 31.5000	  3.8575	   3.857	 230.295
 4610	 31.5100	  3.8625	   3.862	 230.545
 4615	 31.5200	  3.8662	   3.866	 230.795
 4620	 31.5300	  3.8700	   3.870	 231.045
 4625	 31.5400	  3.8750	   3.875	 231.295
 4630	 31.5500	  3.8787	   3.879	 231.545
 4635	 31.5600	  3.8825	   3.882	 231.795
 4640	 31.5700	  3.8875	   3.887	 232.045
 4645	 31.5800	  3.8912	   3.891	 232.295
 4650	 31.5900	  3.8950	   3.895	 232.545
 4655	 31.6000	  3.9000	   3.900	 232.795
 4660	 31.6000	  3.9037	   3.904	 233.045
 4665	 31.6200	  3.9075	   3.908	 233.295
 4670	 31.6300	  3.9125	   3.912	 233.545
 4675	 31.6400	  3.9162	   3.916	 233.795
 4680	 31.6500	  3.9200	   3.920	 234.045
 4685	 31.6600	  3.9250	   3.925	 234.295
 4690	 31.6700	  3.9287	   3.929	 234.545
 4695	 31.6800	  3.9325	   3.932	 234.795
 4700	 31.6900	  3.9375	   3.938	 235.045
 4705	 31.7000	  3.9412	   3.941	 235.295
 4710	 31.7100	  3.9450	   3.945	 235.545
 4715	 31.7200	  3.9500	   3.950	 235.795
 4720	 31.7200	  3.9537	   3.954	 236.045
 4725	 31.7400	  3.9575	   3.957	 236.295
 4730	 31.7500	  3.9625	   3.962	 236.545
 4735	 31.7500	  3.9662	   3.966	 236.795
 4740	 31.7600	  3.9712	   3.971	 237.045
 4745	 31.7700	  3.9750	   3.975	 237.295
 4750	 31.7900	  3.9787	   3.979	 237.545
 4755	 31.7900	  3.9837	   3.984	 237.795
 4760	 31.8000	  3.9875	   3.987	 238.045
 4765	 31.8100	  3.9912	   3.991	 238.295
 4770	 31.8300	  3.9962	   3.996	 238.545
 4775	 31.8300	  4.0000	   4.000	 238.795
 4780	 31.8400	  4.0037	   4.004	 239.045
 4785	 31.8500	  4.0087	   4.009	 239.295
 4790	 31.8700	  4.0125	   4.012	 239.545
 4795	 31.8700	  4.0163	   4.016	 239.795
 4800	 31.8800	  4.0212	   4.021	 240.045
 4805	 31.8900	  4.0250	   4.025	 240.295
 4806	 31.8900	  4.0262	   4.026	 240.345
ControlMode:	0
Rate:	  1.0000
(null)
4
step	1
0
5.000000
0.000000
1
1
0.500000
2
step	2
1
5.000000
0.000000
1
1
2.000000
3
step	3
5
2.000000
0.000000
1
0
30
4
step	4
8
0.000000
0.000000
0
0
0.000000
0
2