File: Ensaio de tração/Dados - Tração/P2-aluminio.txt
0
Diameter:	   5.00
   1.00
Area:	  19.6350
GaugeLength:	  50.00
2009-1-1
A3
001
DataNumber:	11112
index	Load(kN)	Defor(mm)	Stroke(mm)	Time(s)
    0	  0.1080	  0.0012	   0.001	   0.045
   10	  0.1860	  0.0024	   0.009	   0.545
   20	  0.2640	  0.0032	   0.018	   1.045
   30	  0.3432	  0.0040	   0.025	   1.545
   40	  0.4220	  0.0048	   0.034	   2.045
   50	  0.5012	  0.0060	   0.041	   2.545
   60	  0.5804	  0.0068	   0.050	   3.045
   70	  0.6584	  0.0080	   0.059	   3.545
   80	  0.7356	  0.0088	   0.066	   4.045
   90	  0.8084	  0.0096	   0.075	   4.545
  100	  0.8800	  0.0108	   0.082	   5.045
  110	  0.9520	  0.0116	   0.091	   5.545
  120	  1.0220	  0.0128	   0.099	   6.045
  130	  1.0924	  0.0136	   0.107	   6.545
  140	  1.1616	  0.0144	   0.116	   7.045
  150	  1.2308	  0.0152	   0.122	   7.545
  160	  1.2996	  0.0160	   0.131	   8.045
  170	  1.3672	  0.0168	   0.140	   8.545
  180	  1.4328	  0.0176	   0.147	   9.045
  190	  1.4988	  0.0188	   0.156	   9.545
  200	  1.5628	  0.0196	   0.165	  10.045
  210	  1.6280	  0.0204	   0.172	  10.545
  220	  1.6920	  0.0212	   0.181	  11.045
  230	  1.7552	  0.0220	   0.190	  11.545
  240	  1.8176	  0.0228	   0.197	  12.045
  250	  1.9370	  0.0244	   0.214	  12.545
  260	  1.9950	  0.0248	   0.222	  13.045
  270	  2.0530	  0.0256	   0.231	  13.545
  280	  2.1080	  0.0264	   0.239	  14.045
  290	  2.1630	  0.0272	   0.247	  14.545
  300	  2.2150	  0.0276	   0.256	  15.045
  310	  2.2680	  0.0284	   0.264	  15.545
  320	  2.3180	  0.0292	   0.273	  16.045
  330	  2.3670	  0.0296	   0.281	  16.545
  340	  2.4130	  0.0304	   0.289	  17.045
  350	  2.4580	  0.0308	   0.297	  17.545
  360	  2.5020	  0.0316	   0.305	  18.045
  370	  2.5460	  0.0320	   0.314	  18.545
  380	  2.5880	  0.0328	   0.322	  19.045
  390	  2.6290	  0.0332	   0.330	  19.545
  400	  2.6680	  0.0336	   0.339	  20.045
  410	  2.7080	  0.0344	   0.347	  20.545
  420	  2.7460	  0.0348	   0.355	  21.045
  430	  2.7840	  0.0352	   0.364	  21.545
  440	  2.8210	  0.0356	   0.373	  22.045
  450	  2.8560	  0.0360	   0.380	  22.545
  460	  2.8900	  0.0368	   0.389	  23.045
  470	  2.9230	  0.0372	   0.397	  23.545
  480	  2.9550	  0.0376	   0.405	  24.045
  490	  2.9860	  0.0376	   0.414	  24.545
  500	  3.0170	  0.0384	   0.421	  25.045
  510	  3.0470	  0.0388	   0.430	  25.545
  520	  3.0760	  0.0388	   0.439	  26.045
  530	  3.1050	  0.0392	   0.446	  26.545
  540	  3.1340	  0.0396	   0.455	  27.045
  550	  3.1630	  0.0400	   0.464	  27.545
  560	  3.1910	  0.0404	   0.471	  28.045
  570	  3.2170	  0.0412	   0.480	  28.545
  580	  3.2440	  0.0412	   0.489	  29.045
  590	  3.2700	  0.0416	   0.496	  29.545
  600	  3.2970	  0.0420	   0.505	  30.045
  610	  3.3220	  0.0424	   0.514	  30.545
  620	  3.3470	  0.0428	   0.521	  31.045
  630	  3.3740	  0.0432	   0.530	  31.545
  640	  3.3980	  0.0432	   0.537	  32.045
  650	  3.4220	  0.0436	   0.546	  32.545
  660	  3.4470	  0.0440	   0.555	  33.045
  670	  3.4710	  0.0444	   0.562	  33.545
  680	  3.4960	  0.0448	   0.571	  34.045
  690	  3.5190	  0.0452	   0.580	  34.545
  700	  3.5440	  0.0456	   0.587	  35.045
  710	  3.5680	  0.0456	   0.596	  35.545
  720	  3.5920	  0.0460	   0.605	  36.045
  730	  3.6160	  0.0464	   0.613	  36.545
  740	  3.6400	  0.0468	   0.621	  37.045
  750	  3.6640	  0.0472	   0.629	  37.545
  760	  3.6880	  0.0472	   0.637	  38.045
  770	  3.7130	  0.0480	   0.646	  38.545
  780	  3.7370	  0.0484	   0.654	  39.045
  790	  3.7610	  0.0484	   0.662	  39.545
  800	  3.7840	  0.0488	   0.671	  40.045
  810	  3.8080	  0.0492	   0.679	  40.545
  820	  3.8320	  0.0496	   0.688	  41.045
  830	  3.8550	  0.0500	   0.696	  41.545
  840	  3.8780	  0.0500	   0.704	  42.045
  850	  3.9020	  0.0508	   0.712	  42.545
  860	  3.9250	  0.0508	   0.720	  43.045
  870	  3.9490	  0.0512	   0.729	  43.545
  880	  3.9710	  0.0516	   0.738	  44.045
  890	  3.9950	  0.0516	   0.745	  44.545
  900	  4.0180	  0.0520	   0.754	  45.045
  910	  4.0410	  0.0524	   0.762	  45.545
  920	  4.0640	  0.0528	   0.770	  46.045
  930	  4.0870	  0.0528	   0.779	  46.545
  940	  4.1110	  0.0536	   0.787	  47.045
  950	  4.1340	  0.0536	   0.795	  47.545
  960	  4.1570	  0.0540	   0.804	  48.045
  970	  4.1800	  0.0540	   0.811	  48.545
  980	  4.2030	  0.0544	   0.820	  49.045
  990	  4.2260	  0.0548	   0.829	  49.545
 1000	  4.2490	  0.0552	   0.836	  50.045
 1010	  4.2720	  0.0556	   0.845	  50.545
 1020	  4.2960	  0.0560	   0.852	  51.045
 1030	  4.3190	  0.0564	   0.861	  51.545
 1040	  4.3420	  0.0564	   0.870	  52.045
 1050	  4.3660	  0.0568	   0.877	  52.545
 1060	  4.3910	  0.0572	   0.886	  53.045
 1070	  4.4120	  0.0572	   0.895	  53.545
 1080	  4.4360	  0.0576	   0.902	  54.045
 1090	  4.4590	  0.0580	   0.911	  54.545
 1100	  4.4830	  0.0584	   0.920	  55.045
 1110	  4.5600	  0.0592	   0.936	  55.545
 1120	  4.5840	  0.0596	   0.944	  56.045
 1130	  4.6060	  0.0596	   0.952	  56.545
 1140	  4.6300	  0.0600	   0.961	  57.045
 1150	  4.6540	  0.0604	   0.969	  57.545
 1160	  4.6780	  0.0604	   0.977	  58.045
 1170	  4.7020	  0.0608	   0.985	  58.545
 1180	  4.7260	  0.0612	   0.994	  59.045
 1190	  4.7500	  0.0616	   1.002	  59.545
 1200	  4.7740	  0.0616	   1.010	  60.045
 1210	  4.7980	  0.0620	   1.019	  60.545
 1220	  4.8220	  0.0624	   1.028	  61.045
 1230	  4.8460	  0.0624	   1.035	  61.545
 1240	  4.8700	  0.0632	   1.044	  62.045
 1250	  4.8960	  0.0636	   1.053	  62.545
 1260	  4.9200	  0.0636	   1.060	  63.045
 1270	  4.9420	  0.0640	   1.069	  63.545
 1280	  4.9660	  0.0644	   1.076	  64.045
 1290	  4.9900	  0.0644	   1.085	  64.545
 1300	  5.0140	  0.0652	   1.094	  65.045
 1310	  5.0360	  0.0652	   1.101	  65.545
 1320	  5.0600	  0.0656	   1.110	  66.045
 1330	  5.0840	  0.0660	   1.117	  66.545
 1340	  5.1080	  0.0660	   1.126	  67.045
 1350	  5.1340	  0.0664	   1.135	  67.545
 1360	  5.1560	  0.0664	   1.142	  68.045
 1370	  5.1820	  0.0672	   1.151	  68.545
 1380	  5.2040	  0.0676	   1.160	  69.045
 1390	  5.2280	  0.0680	   1.168	  69.545
 1400	  5.2520	  0.0680	   1.176	  70.045
 1410	  5.2760	  0.0684	   1.185	  70.545
 1420	  5.3000	  0.0688	   1.192	  71.045
 1430	  5.3240	  0.0688	   1.201	  71.545
 1440	  5.3480	  0.0692	   1.210	  72.045
 1450	  5.3720	  0.0696	   1.217	  72.545
 1460	  5.3960	  0.0700	   1.226	  73.045
 1470	  5.4200	  0.0704	   1.234	  73.545
 1480	  5.4440	  0.0708	   1.242	  74.045
 1490	  5.4680	  0.0708	   1.251	  74.545
 1500	  5.4920	  0.0712	   1.259	  75.045
 1510	  5.5160	  0.0716	   1.267	  75.545
 1520	  5.5400	  0.0720	   1.275	  76.045
 1530	  5.5640	  0.0724	   1.284	  76.545
 1540	  5.5880	  0.0724	   1.293	  77.045
 1550	  5.6140	  0.0728	   1.300	  77.545
 1560	  5.6360	  0.0728	   1.309	  78.045
 1570	  5.6620	  0.0736	   1.317	  78.545
 1580	  5.6860	  0.0736	   1.325	  79.045
 1590	  5.7080	  0.0740	   1.334	  79.545
 1600	  5.7320	  0.0744	   1.342	  80.045
 1610	  5.7560	  0.0748	   1.350	  80.545
 1620	  5.7800	  0.0748	   1.359	  81.045
 1630	  5.8040	  0.0756	   1.366	  81.545
 1640	  5.8280	  0.0756	   1.375	  82.045
 1650	  5.8520	  0.0760	   1.382	  82.545
 1660	  5.8760	  0.0764	   1.391	  83.045
 1670	  5.9020	  0.0764	   1.400	  83.545
 1680	  5.9260	  0.0768	   1.407	  84.045
 1690	  5.9520	  0.0772	   1.416	  84.545
 1700	  5.9760	  0.0776	   1.425	  85.045
 1710	  6.0000	  0.0780	   1.433	  85.545
 1720	  6.0240	  0.0784	   1.441	  86.045
 1730	  6.0480	  0.0784	   1.450	  86.545
 1740	  6.0720	  0.0788	   1.457	  87.045
 1750	  6.0980	  0.0792	   1.466	  87.545
 1760	  6.1220	  0.0796	   1.474	  88.045
 1770	  6.1460	  0.0796	   1.482	  88.545
 1780	  6.1700	  0.0800	   1.491	  89.045
 1790	  6.1940	  0.0804	   1.499	  89.545
 1800	  6.2200	  0.0808	   1.507	  90.045
 1810	  6.2440	  0.0808	   1.515	  90.545
 1820	  6.2680	  0.0812	   1.524	  91.045
 1830	  6.2920	  0.0816	   1.532	  91.545
 1840	  6.3180	  0.0820	   1.540	  92.045
 1850	  6.3420	  0.0820	   1.549	  92.545
 1860	  6.3680	  0.0824	   1.558	  93.045
 1870	  6.3920	  0.0828	   1.565	  93.545
 1880	  6.4160	  0.0832	   1.574	  94.045
 1890	  6.4400	  0.0836	   1.582	  94.545
 1900	  6.4660	  0.0840	   1.590	  95.045
 1910	  6.4900	  0.0840	   1.599	  95.545
 1920	  6.5140	  0.0844	   1.607	  96.045
 1930	  6.5400	  0.0848	   1.615	  96.545
 1940	  6.5640	  0.0852	   1.624	  97.045
 1950	  6.5880	  0.0852	   1.631	  97.545
 1960	  6.6120	  0.0856	   1.640	  98.045
 1970	  6.6380	  0.0860	   1.647	  98.545
 1980	  6.6640	  0.0864	   1.656	  99.045
 1990	  6.6860	  0.0868	   1.665	  99.545
 2000	  6.7120	  0.0868	   1.673	 100.045
 2010	  6.7380	  0.0872	   1.681	 100.545
 2020	  6.7640	  0.0876	   1.690	 101.045
 2030	  6.7880	  0.0880	   1.697	 101.545
 2040	  6.8140	  0.0884	   1.706	 102.045
 2050	  6.8400	  0.0888	   1.715	 102.545
 2060	  6.8640	  0.0892	   1.722	 103.045
 2070	  6.8900	  0.0892	   1.731	 103.545
 2080	  6.9160	  0.0896	   1.739	 104.045
 2090	  6.9400	  0.0900	   1.747	 104.545
 2100	  6.8920	  0.0892	   1.750	 105.045
 2110	  6.9400	  0.0900	   1.756	 105.545
 2120	  6.9920	  0.0908	   1.764	 106.045
 2130	  7.0220	  0.0908	   1.772	 106.545
 2140	  7.0460	  0.0912	   1.781	 107.045
 2150	  7.0720	  0.0916	   1.789	 107.545
 2160	  7.0960	  0.0920	   1.798	 108.045
 2170	  7.1220	  0.0924	   1.806	 108.545
 2180	  7.1480	  0.0928	   1.814	 109.045
 2190	  7.1740	  0.0932	   1.822	 109.545
 2200	  7.2000	  0.0936	   1.831	 110.045
 2210	  7.2240	  0.0936	   1.839	 110.545
 2220	  7.2500	  0.0940	   1.847	 111.045
 2230	  7.2760	  0.0944	   1.856	 111.545
 2240	  7.3020	  0.0944	   1.864	 112.045
 2250	  7.3280	  0.0952	   1.872	 112.545
 2260	  7.3540	  0.0952	   1.881	 113.045
 2270	  7.3800	  0.0956	   1.889	 113.545
 2280	  7.4060	  0.0960	   1.897	 114.045
 2290	  7.4320	  0.0964	   1.906	 114.545
 2300	  7.4580	  0.0968	   1.914	 115.045
 2310	  7.4840	  0.0968	   1.923	 115.545
 2320	  7.5100	  0.0972	   1.931	 116.045
 2330	  7.5360	  0.0976	   1.939	 116.545
 2340	  7.5620	  0.0980	   1.947	 117.045
 2350	  7.5880	  0.0984	   1.956	 117.545
 2360	  7.6140	  0.0988	   1.964	 118.045
 2370	  7.6380	  0.0992	   1.972	 118.545
 2380	  7.6660	  0.0996	   1.981	 119.045
 2390	  7.6900	  0.0996	   1.990	 119.545
 2400	  7.7160	  0.1000	   1.997	 120.045
 2410	  7.7420	  0.1004	   2.006	 120.545
 2420	  7.7700	  0.1004	   2.015	 121.045
 2430	  7.7940	  0.1008	   2.023	 121.545
 2440	  7.8200	  0.1012	   2.031	 122.045
 2450	  7.8460	  0.1016	   2.040	 122.545
 2460	  7.8740	  0.1020	   2.047	 123.045
 2470	  7.8980	  0.1024	   2.056	 123.545
 2480	  7.9240	  0.1028	   2.065	 124.045
 2490	  7.9500	  0.1032	   2.072	 124.545
 2500	  7.9780	  0.1036	   2.081	 125.045
 2510	  8.0040	  0.1040	   2.090	 125.545
 2520	  8.0300	  0.1040	   2.097	 126.045
 2530	  8.0580	  0.1044	   2.106	 126.545
 2540	  8.0820	  0.1048	   2.115	 127.045
 2550	  8.1100	  0.1052	   2.122	 127.545
 2560	  8.1340	  0.1052	   2.131	 128.045
 2570	  8.1600	  0.1056	   2.140	 128.545
 2580	  8.1860	  0.1060	   2.148	 129.045
 2590	  8.2120	  0.1064	   2.156	 129.545
 2600	  8.2380	  0.1068	   2.165	 130.045
 2610	  8.2640	  0.1068	   2.172	 130.545
 2620	  8.2920	  0.1076	   2.181	 131.045
 2630	  8.3180	  0.1076	   2.190	 131.545
 2640	  8.3440	  0.1080	   2.197	 132.045
 2650	  8.3700	  0.1084	   2.206	 132.545
 2660	  8.3960	  0.1088	   2.214	 133.045
 2670	  8.4220	  0.1088	   2.222	 133.545
 2680	  8.4480	  0.1092	   2.231	 134.045
 2690	  8.4740	  0.1100	   2.240	 134.545
 2700	  8.5000	  0.1100	   2.247	 135.045
 2710	  8.5280	  0.1104	   2.256	 135.545
 2720	  8.5540	  0.1108	   2.265	 136.045
 2730	  8.5800	  0.1108	   2.274	 136.545
 2740	  8.6040	  0.1116	   2.281	 137.045
 2750	  8.6320	  0.1116	   2.290	 137.545
 2760	  8.6600	  0.1120	   2.297	 138.045
 2770	  8.6860	  0.1124	   2.306	 138.545
 2780	  8.7100	  0.1128	   2.315	 139.045
 2790	  8.7360	  0.1132	   2.324	 139.545
 2800	  8.7640	  0.1136	   2.331	 140.045
 2810	  8.7900	  0.1136	   2.340	 140.545
 2820	  8.8160	  0.1140	   2.347	 141.045
 2830	  8.8420	  0.1144	   2.356	 141.545
 2840	  8.8700	  0.1148	   2.365	 142.045
 2850	  8.8960	  0.1152	   2.374	 142.545
 2860	  8.9240	  0.1156	   2.381	 143.045
 2870	  8.9500	  0.1160	   2.390	 143.545
 2880	  8.9780	  0.1160	   2.399	 144.045
 2890	  9.0020	  0.1164	   2.406	 144.545
 2900	  9.0320	  0.1172	   2.424	 145.045
 2910	  9.0560	  0.1176	   2.431	 145.545
 2920	  9.0840	  0.1176	   2.440	 146.045
 2930	  9.1080	  0.1180	   2.449	 146.545
 2940	  9.1360	  0.1184	   2.457	 147.045
 2950	  9.1600	  0.1188	   2.465	 147.545
 2960	  9.1920	  0.1192	   2.474	 148.045
 2970	  9.2160	  0.1196	   2.482	 148.545
 2980	  9.2440	  0.1200	   2.490	 149.045
 2990	  9.2720	  0.1204	   2.499	 149.545
 3000	  9.2960	  0.1204	   2.507	 150.045
 3010	  9.3240	  0.1208	   2.515	 150.545
 3020	  9.3520	  0.1216	   2.524	 151.045
 3030	  9.3760	  0.1216	   2.533	 151.545
 3040	  9.4040	  0.1220	   2.540	 152.045
 3050	  9.4320	  0.1224	   2.549	 152.545
 3060	  9.4600	  0.1228	   2.557	 153.045
 3070	  9.4840	  0.1232	   2.565	 153.545
 3080	  9.5120	  0.1232	   2.574	 154.045
 3090	  9.5400	  0.1236	   2.582	 154.545
 3100	  9.5640	  0.1244	   2.590	 155.045
 3110	  9.5920	  0.1248	   2.599	 155.545
 3120	  9.6200	  0.1252	   2.607	 156.045
 3130	  9.6480	  0.1252	   2.616	 156.545
 3140	  9.6760	  0.1256	   2.624	 157.045
 3150	  9.7000	  0.1260	   2.632	 157.545
 3160	  9.7280	  0.1264	   2.641	 158.045
 3170	  9.7560	  0.1268	   2.649	 158.545
 3180	  9.7800	  0.1272	   2.658	 159.045
 3190	  9.8120	  0.1276	   2.666	 159.545
 3200	  9.8400	  0.1280	   2.674	 160.045
 3210	  9.8640	  0.1280	   2.682	 160.545
 3220	  9.8920	  0.1284	   2.691	 161.045
 3230	  9.9200	  0.1288	   2.699	 161.545
 3240	  9.9480	  0.1292	   2.707	 162.045
 3250	  9.9760	  0.1296	   2.716	 162.545
 3260	 10.0000	  0.1300	   2.724	 163.045
 3270	 10.0280	  0.1304	   2.732	 163.545
 3280	 10.0560	  0.1308	   2.741	 164.045
 3290	 10.0840	  0.1312	   2.749	 164.545
 3300	 10.1120	  0.1316	   2.757	 165.045
 3310	 10.1360	  0.1320	   2.766	 165.545
 3320	 10.1640	  0.1324	   2.775	 166.045
 3330	 10.1920	  0.1328	   2.783	 166.545
 3340	 10.2200	  0.1328	   2.791	 167.045
 3350	 10.2440	  0.1336	   2.800	 167.545
 3360	 10.2760	  0.1340	   2.807	 168.045
 3370	 10.3040	  0.1344	   2.816	 168.545
 3380	 10.3280	  0.1344	   2.825	 169.045
 3390	 10.3560	  0.1348	   2.834	 169.545
 3400	 10.3840	  0.1352	   2.841	 170.045
 3410	 10.4080	  0.1356	   2.850	 170.545
 3420	 10.4400	  0.1360	   2.859	 171.045
 3430	 10.4640	  0.1364	   2.866	 171.545
 3440	 10.4920	  0.1368	   2.875	 172.045
 3450	 10.5240	  0.1372	   2.884	 172.545
 3460	 10.5480	  0.1372	   2.891	 173.045
 3470	 10.5800	  0.1376	   2.900	 173.545
 3480	 10.6040	  0.1384	   2.908	 174.045
 3490	 10.6320	  0.1388	   2.916	 174.545
 3500	 10.6600	  0.1392	   2.925	 175.045
 3510	 10.6880	  0.1396	   2.934	 175.545
 3520	 10.7160	  0.1396	   2.941	 176.045
 3530	 10.7440	  0.1400	   2.950	 176.545
 3540	 10.7760	  0.1408	   2.959	 177.045
 3550	 10.8000	  0.1408	   2.967	 177.545
 3560	 10.8280	  0.1412	   2.975	 178.045
 3570	 10.8560	  0.1420	   2.984	 178.545
 3580	 10.8840	  0.1420	   2.992	 179.045
 3590	 10.9120	  0.1428	   3.000	 179.545
 3600	 10.9400	  0.1428	   3.009	 180.045
 3610	 10.9680	  0.1432	   3.017	 180.545
 3620	 10.9960	  0.1436	   3.025	 181.045
 3630	 11.0240	  0.1440	   3.034	 181.545
 3640	 11.0520	  0.1444	   3.043	 182.045
 3650	 11.0840	  0.1448	   3.051	 182.545
 3660	 11.1120	  0.1452	   3.059	 183.045
 3670	 11.1400	  0.1456	   3.067	 183.545
 3680	 11.1640	  0.1460	   3.076	 184.045
 3690	 11.1960	  0.1464	   3.085	 184.545
 3700	 11.2240	  0.1468	   3.092	 185.045
 3710	 11.2520	  0.1472	   3.101	 185.545
 3720	 11.2800	  0.1476	   3.110	 186.045
 3730	 11.3120	  0.1480	   3.117	 186.545
 3740	 11.3400	  0.1484	   3.126	 187.045
 3750	 11.3680	  0.1488	   3.135	 187.545
 3760	 11.3960	  0.1492	   3.144	 188.045
 3770	 11.4240	  0.1496	   3.151	 188.545
 3780	 11.4520	  0.1500	   3.160	 189.045
 3790	 11.4800	  0.1504	   3.168	 189.545
 3800	 11.5080	  0.1508	   3.176	 190.045
 3810	 11.5400	  0.1512	   3.185	 190.545
 3820	 11.5680	  0.1520	   3.194	 191.045
 3830	 11.5960	  0.1524	   3.201	 191.545
 3840	 11.6240	  0.1524	   3.210	 192.045
 3850	 11.6560	  0.1532	   3.219	 192.545
 3860	 11.6840	  0.1536	   3.227	 193.045
 3870	 11.7160	  0.1536	   3.235	 193.545
 3880	 11.7440	  0.1544	   3.244	 194.045
 3890	 11.7720	  0.1544	   3.252	 194.545
 3900	 11.8040	  0.1552	   3.260	 195.045
 3910	 11.8320	  0.1560	   3.269	 195.545
 3920	 11.8600	  0.1560	   3.277	 196.045
 3930	 11.8880	  0.1564	   3.285	 196.545
 3940	 11.9160	  0.1572	   3.294	 197.045
 3950	 11.9440	  0.1576	   3.303	 197.545
 3960	 11.9760	  0.1580	   3.311	 198.045
 3970	 12.0040	  0.1584	   3.319	 198.545
 3980	 12.0320	  0.1584	   3.327	 199.045
 3990	 12.0600	  0.1592	   3.336	 199.545
 4000	 12.0880	  0.1596	   3.344	 200.045
 4010	 12.1200	  0.1604	   3.352	 200.545
 4020	 12.1480	  0.1608	   3.361	 201.045
 4030	 12.1760	  0.1612	   3.370	 201.545
 4040	 12.2040	  0.1616	   3.377	 202.045
 4050	 12.2320	  0.1620	   3.386	 202.545
 4060	 12.2600	  0.1624	   3.395	 203.045
 4070	 12.2880	  0.1632	   3.402	 203.545
 4080	 12.3160	  0.1632	   3.411	 204.045
 4090	 12.3440	  0.1640	   3.420	 204.545
 4100	 12.3720	  0.1644	   3.428	 205.045
 4110	 12.4000	  0.1648	   3.436	 205.545
 4120	 12.4320	  0.1656	   3.445	 206.045
 4130	 12.4560	  0.1660	   3.452	 206.545
 4140	 12.4880	  0.1668	   3.461	 207.045
 4150	 12.5160	  0.1672	   3.470	 207.545
 4160	 12.5440	  0.1676	   3.477	 208.045
 4170	 12.5720	  0.1684	   3.486	 208.545
 4180	 12.6000	  0.1688	   3.495	 209.045
 4190	 12.6280	  0.1696	   3.504	 209.545
 4200	 12.6560	  0.1704	   3.511	 210.045
 4210	 12.6840	  0.1708	   3.520	 210.545
 4220	 12.7120	  0.1716	   3.529	 211.045
 4230	 12.7400	  0.1720	   3.536	 211.545
 4240	 12.7680	  0.1728	   3.545	 212.045
 4250	 12.7960	  0.1736	   3.554	 212.545
 4260	 12.8200	  0.1744	   3.562	 213.045
 4270	 12.8480	  0.1748	   3.570	 213.545
 4280	 12.8720	  0.1756	   3.579	 214.045
 4290	 12.8960	  0.1768	   3.587	 214.545
 4300	 12.9240	  0.1776	   3.595	 215.045
 4310	 12.9520	  0.1784	   3.604	 215.545
 4320	 12.9760	  0.1792	   3.612	 216.045
 4330	 13.0000	  0.1804	   3.620	 216.545
 4340	 13.0280	  0.1812	   3.629	 217.045
 4350	 13.0520	  0.1824	   3.637	 217.545
 4360	 13.0760	  0.1836	   3.645	 218.045
 4370	 13.1000	  0.1848	   3.654	 218.545
 4380	 13.1240	  0.1860	   3.662	 219.045
 4390	 13.1440	  0.1876	   3.670	 219.545
 4400	 13.1680	  0.1884	   3.679	 220.045
 4410	 13.1880	  0.1900	   3.688	 220.545
 4420	 13.2080	  0.1912	   3.695	 221.045
 4430	 13.2280	  0.1928	   3.704	 221.545
 4440	 13.2480	  0.1948	   3.712	 222.045
 4450	 13.2720	  0.1964	   3.720	 222.545
 4460	 13.2920	  0.1984	   3.729	 223.045
 4470	 13.3120	  0.2000	   3.737	 223.545
 4480	 13.3280	  0.2020	   3.746	 224.045
 4490	 13.3480	  0.2040	   3.754	 224.545
 4500	 13.3680	  0.2060	   3.762	 225.045
 4510	 13.3840	  0.2080	   3.771	 225.545
 4520	 13.4000	  0.2104	   3.779	 226.045
 4530	 13.4160	  0.2128	   3.787	 226.545
 4540	 13.4320	  0.2152	   3.796	 227.045
 4550	 13.4480	  0.2180	   3.805	 227.545
 4560	 13.4600	  0.2204	   3.812	 228.045
 4570	 13.4760	  0.2228	   3.821	 228.545
 4580	 13.4920	  0.2256	   3.830	 229.045
 4590	 13.5040	  0.2284	   3.837	 229.545
 4600	 13.5160	  0.2312	   3.846	 230.045
 4610	 13.5320	  0.2340	   3.855	 230.545
 4620	 13.5400	  0.2372	   3.862	 231.045
 4630	 13.5520	  0.2404	   3.871	 231.545
 4640	 13.5640	  0.2436	   3.880	 232.045
 4650	 13.5760	  0.2464	   3.887	 232.545
 4660	 13.5880	  0.2500	   3.896	 233.045
 4670	 13.6000	  0.2532	   3.905	 233.545
 4680	 13.6080	  0.2568	   3.914	 234.045
 4690	 13.6160	  0.2600	   3.921	 234.545
 4700	 13.6240	  0.2636	   3.930	 235.045
 4710	 13.6320	  0.2672	   3.939	 235.545
 4720	 13.6440	  0.2735	   3.946	 236.045
 4730	 13.6520	  0.2823	   3.955	 236.545
 4740	 13.6600	  0.2910	   3.964	 237.045
 4750	 13.6640	  0.2985	   3.971	 237.545
 4760	 13.6760	  0.3073	   3.980	 238.045
 4770	 13.6800	  0.3160	   3.989	 238.545
 4780	 13.6880	  0.3235	   3.996	 239.045
 4790	 13.6960	  0.3323	   4.005	 239.545
 4800	 13.7000	  0.3410	   4.014	 240.045
 4810	 13.7080	  0.3498	   4.023	 240.545
 4820	 13.7120	  0.3573	   4.030	 241.045
 4830	 13.7200	  0.3660	   4.039	 241.545
 4840	 13.7240	  0.3748	   4.048	 242.045
 4850	 13.7320	  0.3823	   4.055	 242.545
 4860	 13.7360	  0.3910	   4.064	 243.045
 4870	 13.7440	  0.3998	   4.072	 243.545
 4880	 13.7440	  0.4085	   4.081	 244.045
 4890	 13.7520	  0.4160	   4.089	 244.545
 4900	 13.7600	  0.4248	   4.097	 245.045
 4910	 13.7640	  0.4335	   4.106	 245.545
 4920	 13.7720	  0.4410	   4.114	 246.045
 4930	 13.7720	  0.4498	   4.122	 246.545
 4940	 13.7760	  0.4585	   4.131	 247.045
 4950	 13.7840	  0.4660	   4.139	 247.545
 4960	 13.7920	  0.4748	   4.148	 248.045
 4970	 13.7960	  0.4835	   4.156	 248.545
 4980	 13.8000	  0.4923	   4.165	 249.045
 4990	 13.8040	  0.4998	   4.173	 249.545
 5000	 13.8080	  0.5085	   4.181	 250.045
 5010	 13.8160	  0.5173	   4.190	 250.545
 5020	 13.8200	  0.5248	   4.197	 251.045
 5030	 13.8240	  0.5335	   4.206	 251.545
 5040	 13.8280	  0.5423	   4.215	 252.045
 5050	 13.8320	  0.5498	   4.222	 252.545
 5060	 13.8360	  0.5585	   4.231	 253.045
 5070	 13.8400	  0.5673	   4.240	 253.545
 5080	 13.8440	  0.5748	   4.247	 254.045
 5090	 13.8480	  0.5835	   4.256	 254.545
 5100	 13.8560	  0.5923	   4.265	 255.045
 5110	 13.8560	  0.5998	   4.273	 255.545
 5120	 13.8640	  0.6085	   4.281	 256.045
 5130	 13.8680	  0.6173	   4.290	 256.545
 5140	 13.8720	  0.6248	   4.298	 257.045
 5150	 13.8760	  0.6335	   4.306	 257.545
 5160	 13.8800	  0.6423	   4.315	 258.045
 5170	 13.8840	  0.6510	   4.324	 258.545
 5180	 13.8880	  0.6585	   4.331	 259.045
 5190	 13.8920	  0.6673	   4.340	 259.545
 5200	 13.8960	  0.6760	   4.349	 260.045
 5210	 13.9000	  0.6835	   4.356	 260.545
 5220	 13.9040	  0.6923	   4.365	 261.045
 5230	 13.9040	  0.7010	   4.374	 261.545
 5240	 13.9080	  0.7098	   4.382	 262.045
 5250	 13.9120	  0.7173	   4.390	 262.545
 5260	 13.9160	  0.7260	   4.399	 263.045
 5270	 13.9200	  0.7348	   4.407	 263.545
 5280	 13.9240	  0.7423	   4.415	 264.045
 5290	 13.9280	  0.7510	   4.424	 264.545
 5300	 13.9320	  0.7598	   4.432	 265.045
 5310	 13.9360	  0.7673	   4.440	 265.545
 5320	 13.9400	  0.7760	   4.449	 266.045
 5330	 13.9400	  0.7848	   4.457	 266.545
 5340	 13.9440	  0.7923	   4.465	 267.045
 5350	 13.9480	  0.8010	   4.474	 267.545
 5360	 13.9520	  0.8098	   4.483	 268.045
 5370	 13.9560	  0.8173	   4.490	 268.545
 5380	 13.9600	  0.8260	   4.499	 269.045
 5390	 13.9640	  0.8348	   4.507	 269.545
 5400	 13.9680	  0.8423	   4.515	 270.045
 5410	 13.9720	  0.8510	   4.524	 270.545
 5420	 13.9720	  0.8598	   4.532	 271.045
 5430	 13.9760	  0.8673	   4.540	 271.545
 5440	 13.9800	  0.8760	   4.549	 272.045
 5450	 13.9840	  0.8848	   4.557	 272.545
 5460	 13.9880	  0.8923	   4.565	 273.045
 5470	 13.9880	  0.9010	   4.574	 273.545
 5480	 13.9920	  0.9098	   4.582	 274.045
 5490	 13.9960	  0.9173	   4.590	 274.545
 5500	 14.0000	  0.9260	   4.599	 275.045
 5510	 14.0040	  0.9348	   4.608	 275.545
 5520	 14.0080	  0.9435	   4.616	 276.045
 5530	 14.0080	  0.9510	   4.624	 276.545
 5540	 14.0120	  0.9598	   4.632	 277.045
 5550	 14.0160	  0.9685	   4.641	 277.545
 5560	 14.0200	  0.9760	   4.649	 278.045
 5570	 14.0240	  0.9848	   4.657	 278.545
 5580	 14.0240	  0.9935	   4.666	 279.045
 5590	 14.0240	  1.0010	   4.674	 279.545
 5600	 14.0280	  1.0098	   4.682	 280.045
 5610	 14.0320	  1.0185	   4.691	 280.545
 5620	 14.0360	  1.0260	   4.699	 281.045
 5630	 14.0400	  1.0348	   4.707	 281.545
 5640	 14.0440	  1.0435	   4.716	 282.045
 5650	 14.0440	  1.0510	   4.724	 282.545
 5660	 14.0480	  1.0598	   4.733	 283.045
 5670	 14.0520	  1.0685	   4.741	 283.545
 5680	 14.0520	  1.0760	   4.749	 284.045
 5690	 14.0560	  1.0848	   4.757	 284.545
 5700	 14.0600	  1.0935	   4.766	 285.045
 5710	 14.0600	  1.1010	   4.774	 285.545
 5720	 14.0640	  1.1098	   4.782	 286.045
 5730	 14.0680	  1.1185	   4.791	 286.545
 5740	 14.0720	  1.1260	   4.799	 287.045
 5750	 14.0720	  1.1348	   4.807	 287.545
 5760	 14.0760	  1.1435	   4.816	 288.045
 5770	 14.0760	  1.1510	   4.824	 288.545
 5780	 14.0800	  1.1598	   4.832	 289.045
 5790	 14.0840	  1.1685	   4.841	 289.545
 5800	 14.0880	  1.1760	   4.849	 290.045
 5810	 14.0880	  1.1848	   4.858	 290.545
 5820	 14.0920	  1.1935	   4.866	 291.045
 5830	 14.0960	  1.2010	   4.874	 291.545
 5840	 14.0960	  1.2098	   4.882	 292.045
 5850	 14.1000	  1.2185	   4.891	 292.545
 5860	 14.1040	  1.2260	   4.899	 293.045
 5870	 14.1040	  1.2348	   4.907	 293.545
 5880	 14.1080	  1.2435	   4.916	 294.045
 5890	 14.1120	  1.2510	   4.924	 294.545
 5900	 14.1120	  1.2598	   4.932	 295.045
 5910	 14.1120	  1.2685	   4.941	 295.545
 5920	 14.1160	  1.2760	   4.949	 296.045
 5930	 14.1200	  1.2848	   4.957	 296.545
 5940	 14.1240	  1.2935	   4.966	 297.045
 5950	 14.1240	  1.3010	   4.974	 297.545
 5960	 14.1280	  1.3098	   4.983	 298.045
 5970	 14.1320	  1.3185	   4.991	 298.545
 5980	 14.1360	  1.3260	   4.999	 299.045
 5990	 14.1360	  1.3348	   5.007	 299.545
 6000	 14.1400	  1.3435	   5.016	 300.045
 6010	 14.1400	  1.3510	   5.024	 300.545
 6020	 14.1440	  1.3598	   5.032	 301.045
 6030	 14.1480	  1.3685	   5.041	 301.545
 6040	 14.1520	  1.3760	   5.049	 302.045
 6050	 14.1520	  1.3848	   5.057	 302.545
 6060	 14.1560	  1.3935	   5.066	 303.045
 6070	 14.1560	  1.4010	   5.074	 303.545
 6080	 14.1560	  1.4098	   5.082	 304.045
 6090	 14.1600	  1.4185	   5.091	 304.545
 6100	 14.1640	  1.4260	   5.099	 305.045
 6110	 14.1680	  1.4348	   5.108	 305.545
 6120	 14.1680	  1.4435	   5.116	 306.045
 6130	 14.1720	  1.4523	   5.125	 306.545
 6140	 14.1760	  1.4598	   5.132	 307.045
 6150	 14.1800	  1.4685	   5.141	 307.545
 6160	 14.1800	  1.4773	   5.150	 308.045
 6170	 14.1800	  1.4848	   5.157	 308.545
 6180	 14.1840	  1.4935	   5.166	 309.045
 6190	 14.1840	  1.5023	   5.175	 309.545
 6200	 14.1880	  1.5110	   5.184	 310.045
 6210	 14.1920	  1.5185	   5.191	 310.545
 6220	 14.1920	  1.5273	   5.200	 311.045
 6230	 14.1960	  1.5348	   5.207	 311.545
 6240	 14.1960	  1.5435	   5.216	 312.045
 6250	 14.1960	  1.5523	   5.225	 312.545
 6260	 14.2000	  1.5598	   5.233	 313.045
 6270	 14.2040	  1.5685	   5.241	 313.545
 6280	 14.2080	  1.5773	   5.250	 314.045
 6290	 14.2080	  1.5848	   5.257	 314.545
 6300	 14.2120	  1.5935	   5.266	 315.045
 6310	 14.2120	  1.6023	   5.275	 315.545
 6320	 14.2160	  1.6098	   5.282	 316.045
 6330	 14.2200	  1.6185	   5.291	 316.545
 6340	 14.2200	  1.6273	   5.300	 317.045
 6350	 14.2240	  1.6348	   5.307	 317.545
 6360	 14.2280	  1.6435	   5.316	 318.045
 6370	 14.2280	  1.6523	   5.325	 318.545
 6380	 14.2280	  1.6610	   5.334	 319.045
 6390	 14.2320	  1.6685	   5.341	 319.545
 6400	 14.2320	  1.6773	   5.350	 320.045
 6410	 14.2360	  1.6848	   5.358	 320.545
 6420	 14.2360	  1.6935	   5.366	 321.045
 6430	 14.2400	  1.7023	   5.375	 321.545
 6440	 14.2440	  1.7110	   5.384	 322.045
 6450	 14.2440	  1.7185	   5.391	 322.545
 6460	 14.2480	  1.7273	   5.400	 323.045
 6470	 14.2480	  1.7348	   5.407	 323.545
 6480	 14.2520	  1.7435	   5.416	 324.045
 6490	 14.2520	  1.7523	   5.425	 324.545
 6500	 14.2560	  1.7610	   5.434	 325.045
 6510	 14.2560	  1.7685	   5.441	 325.545
 6520	 14.2600	  1.7773	   5.450	 326.045
 6530	 14.2600	  1.7860	   5.459	 326.545
 6540	 14.2600	  1.7948	   5.467	 327.045
 6550	 14.2680	  1.8110	   5.484	 327.545
 6560	 14.2680	  1.8185	   5.491	 328.045
 6570	 14.2680	  1.8273	   5.500	 328.545
 6580	 14.2720	  1.8348	   5.507	 329.045
 6590	 14.2760	  1.8435	   5.516	 329.545
 6600	 14.2760	  1.8523	   5.525	 330.045
 6610	 14.2800	  1.8598	   5.532	 330.545
 6620	 14.2800	  1.8685	   5.541	 331.045
 6630	 14.2840	  1.8773	   5.550	 331.545
 6640	 14.2840	  1.8848	   5.557	 332.045
 6650	 14.2840	  1.8935	   5.566	 332.545
 6660	 14.2880	  1.9023	   5.575	 333.045
 6670	 14.2920	  1.9110	   5.584	 333.545
 6680	 14.2920	  1.9185	   5.591	 334.045
 6690	 14.2920	  1.9273	   5.600	 334.545
 6700	 14.2960	  1.9360	   5.609	 335.045
 6710	 14.2960	  1.9435	   5.616	 335.545
 6720	 14.3000	  1.9523	   5.625	 336.045
 6730	 14.3000	  1.9610	   5.634	 336.545
 6740	 14.3000	  1.9685	   5.641	 337.045
 6750	 14.3040	  1.9773	   5.650	 337.545
 6760	 14.3040	  1.9848	   5.657	 338.045
 6770	 14.3080	  1.9935	   5.666	 338.545
 6780	 14.3080	  2.0023	   5.675	 339.045
 6790	 14.3120	  2.0110	   5.684	 339.545
 6800	 14.3120	  2.0185	   5.691	 340.045
 6810	 14.3160	  2.0273	   5.700	 340.545
 6820	 14.3160	  2.0360	   5.709	 341.045
 6830	 14.3200	  2.0435	   5.716	 341.545
 6840	 14.3200	  2.0523	   5.725	 342.045
 6850	 14.3240	  2.0610	   5.734	 342.545
 6860	 14.3240	  2.0685	   5.741	 343.045
 6870	 14.3280	  2.0773	   5.750	 343.545
 6880	 14.3280	  2.0860	   5.759	 344.045
 6890	 14.3280	  2.0935	   5.766	 344.545
 6900	 14.3320	  2.1023	   5.775	 345.045
 6910	 14.3320	  2.1110	   5.784	 345.545
 6920	 14.3320	  2.1185	   5.791	 346.045
 6930	 14.3360	  2.1273	   5.800	 346.545
 6940	 14.3360	  2.1360	   5.809	 347.045
 6950	 14.3400	  2.1435	   5.816	 347.545
 6960	 14.3400	  2.1523	   5.825	 348.045
 6970	 14.3440	  2.1610	   5.834	 348.545
 6980	 14.3440	  2.1685	   5.841	 349.045
 6990	 14.3480	  2.1773	   5.850	 349.545
 7000	 14.3480	  2.1860	   5.859	 350.045
 7010	 14.3480	  2.1935	   5.866	 350.545
 7020	 14.3520	  2.2023	   5.875	 351.045
 7030	 14.3520	  2.2110	   5.884	 351.545
 7040	 14.3520	  2.2198	   5.892	 352.045
 7050	 14.3560	  2.2273	   5.900	 352.545
 7060	 14.3560	  2.2360	   5.909	 353.045
 7070	 14.3560	  2.2448	   5.918	 353.545
 7080	 14.3560	  2.2523	   5.925	 354.045
 7090	 14.3600	  2.2610	   5.934	 354.545
 7100	 14.3600	  2.2698	   5.942	 355.045
 7110	 14.3600	  2.2773	   5.950	 355.545
 7120	 14.3640	  2.2860	   5.959	 356.045
 7130	 14.3640	  2.2948	   5.967	 356.545
 7140	 14.3640	  2.3023	   5.975	 357.045
 7150	 14.3640	  2.3110	   5.984	 357.545
 7160	 14.3680	  2.3198	   5.992	 358.045
 7170	 14.3680	  2.3273	   6.000	 358.545
 7180	 14.3720	  2.3360	   6.009	 359.045
 7190	 14.3720	  2.3448	   6.017	 359.545
 7200	 14.3720	  2.3523	   6.025	 360.045
 7210	 14.3720	  2.3610	   6.034	 360.545
 7220	 14.3760	  2.3698	   6.043	 361.045
 7230	 14.3760	  2.3773	   6.050	 361.545
 7240	 14.3760	  2.3860	   6.059	 362.045
 7250	 14.3800	  2.3948	   6.067	 362.545
 7260	 14.3800	  2.4023	   6.075	 363.045
 7270	 14.3800	  2.4110	   6.084	 363.545
 7280	 14.3840	  2.4198	   6.092	 364.045
 7290	 14.3840	  2.4285	   6.101	 364.545
 7300	 14.3840	  2.4360	   6.109	 365.045
 7310	 14.3880	  2.4448	   6.117	 365.545
 7320	 14.3880	  2.4535	   6.126	 366.045
 7330	 14.3880	  2.4610	   6.134	 366.545
 7340	 14.3920	  2.4698	   6.142	 367.045
 7350	 14.3880	  2.4785	   6.151	 367.545
 7360	 14.3880	  2.4873	   6.160	 368.045
 7370	 14.3920	  2.4948	   6.168	 368.545
 7380	 14.3920	  2.5035	   6.176	 369.045
 7390	 14.3920	  2.5123	   6.185	 369.545
 7400	 14.3960	  2.5198	   6.192	 370.045
 7410	 14.3920	  2.5285	   6.201	 370.545
 7420	 14.3960	  2.5373	   6.210	 371.045
 7430	 14.3960	  2.5448	   6.217	 371.545
 7440	 14.3960	  2.5535	   6.226	 372.045
 7450	 14.3960	  2.5623	   6.235	 372.545
 7460	 14.4000	  2.5710	   6.244	 373.045
 7470	 14.3960	  2.5785	   6.251	 373.545
 7480	 14.4000	  2.5873	   6.260	 374.045
 7490	 14.4000	  2.5960	   6.269	 374.545
 7500	 14.4000	  2.6035	   6.276	 375.045
 7510	 14.4000	  2.6123	   6.285	 375.545
 7520	 14.4000	  2.6210	   6.294	 376.045
 7530	 14.4000	  2.6298	   6.302	 376.545
 7540	 14.4000	  2.6373	   6.310	 377.045
 7550	 14.4040	  2.6460	   6.319	 377.545
 7560	 14.4040	  2.6548	   6.327	 378.045
 7570	 14.4040	  2.6623	   6.335	 378.545
 7580	 14.4040	  2.6710	   6.344	 379.045
 7590	 14.4040	  2.6798	   6.352	 379.545
 7600	 14.4040	  2.6873	   6.360	 380.045
 7610	 14.4080	  2.6960	   6.369	 380.545
 7620	 14.4040	  2.7048	   6.378	 381.045
 7630	 14.4080	  2.7123	   6.385	 381.545
 7640	 14.4080	  2.7210	   6.394	 382.045
 7650	 14.4080	  2.7298	   6.402	 382.545
 7660	 14.4080	  2.7373	   6.410	 383.045
 7670	 14.4080	  2.7460	   6.419	 383.545
 7680	 14.4080	  2.7548	   6.427	 384.045
 7690	 14.4080	  2.7635	   6.436	 384.545
 7700	 14.4080	  2.7710	   6.444	 385.045
 7710	 14.4040	  2.7798	   6.452	 385.545
 7720	 14.4040	  2.7885	   6.461	 386.045
 7730	 14.4040	  2.7960	   6.469	 386.545
 7740	 14.4040	  2.8048	   6.477	 387.045
 7750	 14.4040	  2.8123	   6.485	 387.545
 7760	 14.4040	  2.8210	   6.494	 388.045
 7770	 14.4080	  2.8298	   6.503	 388.545
 7780	 14.4040	  2.8385	   6.511	 389.045
 7790	 14.4040	  2.8460	   6.519	 389.545
 7800	 14.4040	  2.8548	   6.527	 390.045
 7810	 14.4040	  2.8635	   6.536	 390.545
 7820	 14.4040	  2.8710	   6.544	 391.045
 7830	 14.4040	  2.8798	   6.552	 391.545
 7840	 14.4000	  2.8885	   6.561	 392.045
 7850	 14.4000	  2.8973	   6.570	 392.545
 7860	 14.4000	  2.9048	   6.577	 393.045
 7870	 14.4000	  2.9135	   6.586	 393.545
 7880	 14.3960	  2.9223	   6.595	 394.045
 7890	 14.3960	  2.9298	   6.602	 394.545
 7900	 14.3960	  2.9385	   6.611	 395.045
 7910	 14.3960	  2.9473	   6.620	 395.545
 7920	 14.3920	  2.9548	   6.628	 396.045
 7930	 14.3920	  2.9635	   6.636	 396.545
 7940	 14.3920	  2.9723	   6.645	 397.045
 7950	 14.3880	  2.9798	   6.652	 397.545
 7960	 14.3880	  2.9885	   6.661	 398.045
 7970	 14.3880	  2.9973	   6.670	 398.545
 7980	 14.3840	  3.0060	   6.679	 399.045
 7990	 14.3840	  3.0135	   6.686	 399.545
 8000	 14.3800	  3.0223	   6.695	 400.045
 8010	 14.3800	  3.0310	   6.704	 400.545
 8020	 14.3760	  3.0398	   6.712	 401.045
 8030	 14.3760	  3.0473	   6.720	 401.545
 8040	 14.3720	  3.0560	   6.729	 402.045
 8050	 14.3720	  3.0648	   6.737	 402.545
 8060	 14.3680	  3.0723	   6.745	 403.045
 8070	 14.3680	  3.0810	   6.754	 403.545
 8080	 14.3640	  3.0898	   6.762	 404.045
 8090	 14.3640	  3.0973	   6.770	 404.545
 8100	 14.3600	  3.1060	   6.779	 405.045
 8110	 14.3560	  3.1148	   6.787	 405.545
 8120	 14.3560	  3.1223	   6.795	 406.045
 8130	 14.3520	  3.1310	   6.804	 406.545
 8140	 14.3480	  3.1398	   6.812	 407.045
 8150	 14.3480	  3.1473	   6.820	 407.545
 8160	 14.3440	  3.1560	   6.829	 408.045
 8170	 14.3400	  3.1648	   6.837	 408.545
 8180	 14.3360	  3.1723	   6.845	 409.045
 8190	 14.3320	  3.1810	   6.854	 409.545
 8200	 14.3320	  3.1898	   6.862	 410.045
 8210	 14.3280	  3.1985	   6.871	 410.545
 8220	 14.3240	  3.2060	   6.879	 411.045
 8230	 14.3200	  3.2148	   6.887	 411.545
 8240	 14.3160	  3.2235	   6.896	 412.045
 8250	 14.3120	  3.2310	   6.904	 412.545
 8260	 14.3080	  3.2398	   6.912	 413.045
 8270	 14.3040	  3.2485	   6.921	 413.545
 8280	 14.3000	  3.2560	   6.929	 414.045
 8290	 14.2960	  3.2648	   6.938	 414.545
 8300	 14.2920	  3.2735	   6.946	 415.045
 8310	 14.2880	  3.2823	   6.955	 415.545
 8320	 14.2840	  3.2910	   6.964	 416.045
 8330	 14.2760	  3.2985	   6.971	 416.545
 8340	 14.2720	  3.3073	   6.980	 417.045
 8350	 14.2680	  3.3148	   6.987	 417.545
 8360	 14.2600	  3.3235	   6.996	 418.045
 8370	 14.2600	  3.3323	   7.005	 418.545
 8380	 14.2520	  3.3410	   7.014	 419.045
 8390	 14.2440	  3.3485	   7.021	 419.545
 8400	 14.2400	  3.3573	   7.030	 420.045
 8410	 14.2360	  3.3660	   7.039	 420.545
 8420	 14.2280	  3.3735	   7.046	 421.045
 8430	 14.2240	  3.3823	   7.055	 421.545
 8440	 14.2200	  3.3910	   7.064	 422.045
 8450	 14.2120	  3.3985	   7.071	 422.545
 8460	 14.2080	  3.4073	   7.080	 423.045
 8470	 14.2040	  3.4160	   7.089	 423.545
 8480	 14.1960	  3.4248	   7.097	 424.045
 8490	 14.1880	  3.4323	   7.105	 424.545
 8500	 14.1840	  3.4410	   7.114	 425.045
 8510	 14.1800	  3.4498	   7.122	 425.545
 8520	 14.1720	  3.4585	   7.131	 426.045
 8530	 14.1640	  3.4660	   7.139	 426.545
 8540	 14.1600	  3.4748	   7.148	 427.045
 8550	 14.1520	  3.4835	   7.156	 427.545
 8560	 14.1440	  3.4910	   7.164	 428.045
 8570	 14.1360	  3.4998	   7.172	 428.545
 8580	 14.1280	  3.5085	   7.181	 429.045
 8590	 14.1240	  3.5160	   7.189	 429.545
 8600	 14.1160	  3.5248	   7.197	 430.045
 8610	 14.1080	  3.5335	   7.206	 430.545
 8620	 14.1000	  3.5410	   7.214	 431.045
 8630	 14.0920	  3.5498	   7.222	 431.545
 8640	 14.0880	  3.5585	   7.231	 432.045
 8650	 14.0800	  3.5673	   7.240	 432.545
 8660	 14.0720	  3.5748	   7.247	 433.045
 8670	 14.0640	  3.5835	   7.256	 433.545
 8680	 14.0560	  3.5923	   7.265	 434.045
 8690	 14.0480	  3.6010	   7.274	 434.545
 8700	 14.0400	  3.6085	   7.281	 435.045
 8710	 14.0320	  3.6173	   7.290	 435.545
 8720	 14.0240	  3.6260	   7.299	 436.045
 8730	 14.0160	  3.6335	   7.306	 436.545
 8740	 14.0080	  3.6423	   7.315	 437.045
 8750	 14.0000	  3.6510	   7.324	 437.545
 8760	 13.9920	  3.6585	   7.331	 438.045
 8770	 13.9840	  3.6673	   7.340	 438.545
 8780	 13.9760	  3.6760	   7.349	 439.045
 8790	 13.9680	  3.6848	   7.357	 439.545
 8800	 13.9600	  3.6923	   7.365	 440.045
 8810	 13.9520	  3.7010	   7.374	 440.545
 8820	 13.9400	  3.7085	   7.381	 441.045
 8830	 13.9320	  3.7173	   7.390	 441.545
 8840	 13.9240	  3.7260	   7.399	 442.045
 8850	 13.9160	  3.7348	   7.407	 442.545
 8860	 13.9040	  3.7423	   7.415	 443.045
 8870	 13.8960	  3.7510	   7.424	 443.545
 8880	 13.8840	  3.7598	   7.432	 444.045
 8890	 13.8760	  3.7685	   7.441	 444.545
 8900	 13.8680	  3.7760	   7.449	 445.045
 8910	 13.8560	  3.7848	   7.457	 445.545
 8920	 13.8480	  3.7935	   7.466	 446.045
 8930	 13.8400	  3.8023	   7.475	 446.545
 8940	 13.8280	  3.8098	   7.482	 447.045
 8950	 13.8200	  3.8185	   7.491	 447.545
 8960	 13.8120	  3.8273	   7.500	 448.045
 8970	 13.8000	  3.8348	   7.507	 448.545
 8980	 13.7920	  3.8435	   7.516	 449.045
 8990	 13.7800	  3.8523	   7.525	 449.545
 9000	 13.7720	  3.8610	   7.534	 450.045
 9010	 13.7600	  3.8685	   7.541	 450.545
 9020	 13.7520	  3.8773	   7.550	 451.045
 9030	 13.7440	  3.8860	   7.559	 451.545
 9040	 13.7320	  3.8948	   7.567	 452.045
 9050	 13.7200	  3.9023	   7.575	 452.545
 9060	 13.7080	  3.9110	   7.584	 453.045
 9070	 13.7000	  3.9198	   7.592	 453.545
 9080	 13.6920	  3.9273	   7.600	 454.045
 9090	 13.6800	  3.9360	   7.609	 454.545
 9100	 13.6680	  3.9435	   7.616	 455.045
 9110	 13.6600	  3.9523	   7.625	 455.545
 9120	 13.6520	  3.9610	   7.634	 456.045
 9130	 13.6400	  3.9698	   7.642	 456.545
 9140	 13.6280	  3.9773	   7.650	 457.045
 9150	 13.6160	  3.9860	   7.659	 457.545
 9160	 13.6080	  3.9948	   7.668	 458.045
 9170	 13.5960	  4.0035	   7.676	 458.545
 9180	 13.5840	  4.0110	   7.684	 459.045
 9190	 13.5760	  4.0198	   7.692	 459.545
 9200	 13.5640	  4.0285	   7.701	 460.045
 9210	 13.5520	  4.0373	   7.710	 460.545
 9220	 13.5400	  4.0448	   7.717	 461.045
 9230	 13.5280	  4.0535	   7.726	 461.545
 9240	 13.5200	  4.0623	   7.735	 462.045
 9250	 13.5080	  4.0698	   7.742	 462.545
 9260	 13.4960	  4.0785	   7.751	 463.045
 9270	 13.4880	  4.0873	   7.760	 463.545
 9280	 13.4760	  4.0948	   7.767	 464.045
 9290	 13.4640	  4.1035	   7.776	 464.545
 9300	 13.4520	  4.1123	   7.785	 465.045
 9310	 13.4400	  4.1198	   7.793	 465.545
 9320	 13.4320	  4.1285	   7.801	 466.045
 9330	 13.4200	  4.1373	   7.810	 466.545
 9340	 13.4080	  4.1460	   7.819	 467.045
 9350	 13.3960	  4.1535	   7.826	 467.545
 9360	 13.3840	  4.1623	   7.835	 468.045
 9370	 13.3720	  4.1710	   7.844	 468.545
 9380	 13.3600	  4.1785	   7.851	 469.045
 9390	 13.3480	  4.1873	   7.860	 469.545
 9400	 13.3360	  4.1960	   7.869	 470.045
 9410	 13.3280	  4.2035	   7.876	 470.545
 9420	 13.3160	  4.2123	   7.885	 471.045
 9430	 13.3040	  4.2210	   7.894	 471.545
 9440	 13.2880	  4.2285	   7.901	 472.045
 9450	 13.2800	  4.2373	   7.910	 472.545
 9460	 13.2680	  4.2460	   7.919	 473.045
 9470	 13.2560	  4.2548	   7.927	 473.545
 9480	 13.2440	  4.2623	   7.935	 474.045
 9490	 13.2320	  4.2710	   7.944	 474.545
 9500	 13.2200	  4.2798	   7.952	 475.045
 9510	 13.2040	  4.2885	   7.961	 475.545
 9520	 13.1920	  4.2973	   7.970	 476.045
 9530	 13.1800	  4.3048	   7.977	 476.545
 9540	 13.1680	  4.3135	   7.986	 477.045
 9550	 13.1560	  4.3223	   7.995	 477.545
 9560	 13.1440	  4.3298	   8.002	 478.045
 9570	 13.1320	  4.3385	   8.011	 478.545
 9580	 13.1200	  4.3473	   8.020	 479.045
 9590	 13.1040	  4.3548	   8.028	 479.545
 9600	 13.0920	  4.3635	   8.036	 480.045
 9610	 13.0840	  4.3710	   8.044	 480.545
 9620	 13.0680	  4.3798	   8.052	 481.045
 9630	 13.0560	  4.3885	   8.061	 481.545
 9640	 13.0440	  4.3973	   8.070	 482.045
 9650	 13.0320	  4.4048	   8.077	 482.545
 9660	 13.0160	  4.4135	   8.086	 483.045
 9670	 13.0040	  4.4223	   8.095	 483.545
 9680	 12.9920	  4.4310	   8.104	 484.045
 9690	 12.9800	  4.4385	   8.111	 484.545
 9700	 12.9680	  4.4473	   8.120	 485.045
 9710	 12.9520	  4.4560	   8.129	 485.545
 9720	 12.9400	  4.4635	   8.136	 486.045
 9730	 12.9240	  4.4723	   8.145	 486.545
 9740	 12.9120	  4.4810	   8.154	 487.045
 9750	 12.9000	  4.4885	   8.161	 487.545
 9760	 12.8880	  4.4973	   8.170	 488.045
 9770	 12.8600	  4.5135	   8.186	 488.545
 9780	 12.8480	  4.5223	   8.195	 489.045
 9790	 12.8320	  4.5310	   8.204	 489.545
 9800	 12.8200	  4.5398	   8.212	 490.045
 9810	 12.8040	  4.5473	   8.220	 490.545
 9820	 12.7920	  4.5560	   8.229	 491.045
 9830	 12.7760	  4.5648	   8.238	 491.545
 9840	 12.7640	  4.5723	   8.245	 492.045
 9850	 12.7520	  4.5810	   8.254	 492.545
 9860	 12.7360	  4.5898	   8.262	 493.045
 9870	 12.7240	  4.5985	   8.271	 493.545
 9880	 12.7080	  4.6060	   8.279	 494.045
 9890	 12.6920	  4.6148	   8.287	 494.545
 9900	 12.6800	  4.6235	   8.296	 495.045
 9910	 12.6680	  4.6310	   8.304	 495.545
 9920	 12.6520	  4.6398	   8.312	 496.045
 9930	 12.6360	  4.6485	   8.321	 496.545
 9940	 12.6240	  4.6560	   8.329	 497.045
 9950	 12.6080	  4.6648	   8.337	 497.545
 9960	 12.5960	  4.6735	   8.346	 498.045
 9970	 12.5800	  4.6810	   8.354	 498.545
 9980	 12.5680	  4.6898	   8.363	 499.045
 9990	 12.5520	  4.6985	   8.371	 499.545
10000	 12.5360	  4.7073	   8.380	 500.045
10010	 12.5240	  4.7148	   8.387	 500.545
10020	 12.5080	  4.7235	   8.396	 501.045
10030	 12.4960	  4.7323	   8.405	 501.545
10040	 12.4800	  4.7398	   8.412	 502.045
10050	 12.4640	  4.7485	   8.421	 502.545
10060	 12.4520	  4.7573	   8.430	 503.045
10070	 12.4360	  4.7648	   8.438	 503.545
10080	 12.4200	  4.7735	   8.446	 504.045
10090	 12.4040	  4.7823	   8.455	 504.545
10100	 12.3920	  4.7898	   8.462	 505.045
10110	 12.3760	  4.7985	   8.471	 505.545
10120	 12.3640	  4.8073	   8.480	 506.045
10130	 12.3440	  4.8148	   8.488	 506.545
10140	 12.3280	  4.8235	   8.496	 507.045
10150	 12.3160	  4.8323	   8.505	 507.545
10160	 12.3000	  4.8410	   8.514	 508.045
10170	 12.2840	  4.8485	   8.521	 508.545
10180	 12.2680	  4.8573	   8.530	 509.045
10190	 12.2560	  4.8660	   8.539	 509.545
10200	 12.2360	  4.8735	   8.546	 510.045
10210	 12.2240	  4.8823	   8.555	 510.545
10220	 12.2080	  4.8910	   8.564	 511.045
10230	 12.1920	  4.8985	   8.571	 511.545
10240	 12.1760	  4.9073	   8.580	 512.045
10250	 12.1600	  4.9160	   8.589	 512.545
10260	 12.1440	  4.9235	   8.596	 513.045
10270	 12.1280	  4.9323	   8.605	 513.545
10280	 12.1120	  4.9410	   8.614	 514.045
10290	 12.0960	  4.9485	   8.621	 514.545
10300	 12.0840	  4.9573	   8.630	 515.045
10310	 12.0640	  4.9660	   8.639	 515.545
10320	 12.0480	  4.9735	   8.646	 516.045
10330	 12.0320	  4.9823	   8.655	 516.545
10340	 12.0160	  4.9910	   8.664	 517.045
10350	 12.0000	  4.9985	   8.671	 517.545
10360	 11.9880	  5.0073	   8.680	 518.045
10370	 11.9680	  5.0160	   8.689	 518.545
10380	 11.9560	  5.0235	   8.696	 519.045
10390	 11.9360	  5.0323	   8.705	 519.545
10400	 11.9200	  5.0410	   8.714	 520.045
10410	 11.9040	  5.0485	   8.721	 520.545
10420	 11.8840	  5.0573	   8.730	 521.045
10430	 11.8720	  5.0660	   8.739	 521.545
10440	 11.8520	  5.0735	   8.746	 522.045
10450	 11.8360	  5.0823	   8.755	 522.545
10460	 11.8200	  5.0910	   8.764	 523.045
10470	 11.8040	  5.0985	   8.771	 523.545
10480	 11.7840	  5.1073	   8.780	 524.045
10490	 11.7680	  5.1160	   8.789	 524.545
10500	 11.7520	  5.1248	   8.797	 525.045
10510	 11.7360	  5.1323	   8.805	 525.545
10520	 11.7160	  5.1410	   8.814	 526.045
10530	 11.7000	  5.1498	   8.823	 526.545
10540	 11.6840	  5.1573	   8.830	 527.045
10550	 11.6680	  5.1660	   8.839	 527.545
10560	 11.6480	  5.1735	   8.846	 528.045
10570	 11.6320	  5.1823	   8.855	 528.545
10580	 11.6120	  5.1910	   8.864	 529.045
10590	 11.5960	  5.1985	   8.871	 529.545
10600	 11.5800	  5.2073	   8.880	 530.045
10610	 11.5640	  5.2160	   8.889	 530.545
10620	 11.5440	  5.2235	   8.896	 531.045
10630	 11.5240	  5.2323	   8.905	 531.545
10640	 11.5080	  5.2410	   8.914	 532.045
10650	 11.4880	  5.2485	   8.921	 532.545
10660	 11.4720	  5.2573	   8.930	 533.045
10670	 11.4560	  5.2660	   8.939	 533.545
10680	 11.4360	  5.2735	   8.946	 534.045
10690	 11.4160	  5.2823	   8.955	 534.545
10700	 11.4000	  5.2910	   8.964	 535.045
10710	 11.3800	  5.2998	   8.972	 535.545
10720	 11.3640	  5.3073	   8.980	 536.045
10730	 11.3440	  5.3160	   8.989	 536.545
10740	 11.3240	  5.3248	   8.997	 537.045
10750	 11.3040	  5.3323	   9.005	 537.545
10760	 11.2880	  5.3410	   9.014	 538.045
10770	 11.2680	  5.3485	   9.021	 538.545
10780	 11.2480	  5.3573	   9.030	 539.045
10790	 11.2280	  5.3660	   9.039	 539.545
10800	 11.2080	  5.3735	   9.046	 540.045
10810	 11.1920	  5.3823	   9.055	 540.545
10820	 11.1680	  5.3910	   9.064	 541.045
10830	 11.1520	  5.3998	   9.073	 541.545
10840	 11.1320	  5.4073	   9.080	 542.045
10850	 11.1080	  5.4160	   9.089	 542.545
10860	 11.0840	  5.4248	   9.097	 543.045
10870	 11.0640	  5.4323	   9.105	 543.545
10880	 11.0440	  5.4410	   9.114	 544.045
10890	 11.0240	  5.4498	   9.122	 544.545
10900	 11.0000	  5.4573	   9.130	 545.045
10910	 10.9800	  5.4660	   9.139	 545.545
10920	 10.9600	  5.4748	   9.148	 546.045
10930	 10.9360	  5.4823	   9.155	 546.545
10940	 10.9160	  5.4910	   9.164	 547.045
10950	 10.8920	  5.4998	   9.172	 547.545
10960	 10.8680	  5.5073	   9.180	 548.045
10970	 10.8400	  5.5160	   9.189	 548.545
10980	 10.8160	  5.5248	   9.198	 549.045
10990	 10.7880	  5.5323	   9.205	 549.545
11000	 10.7640	  5.5410	   9.214	 550.045
11010	 10.7320	  5.5498	   9.222	 550.545
11020	 10.7000	  5.5573	   9.230	 551.045
11030	 10.6680	  5.5660	   9.239	 551.545
11040	 10.5800	  5.5748	   9.247	 552.045
11050	 10.4400	  5.5823	   9.255	 552.545
11060	  7.2600	  5.5935	   9.266	 553.045
11070	  0.2360	  5.5998	   9.273	 553.545
11080	  0.2400	  5.6085	   9.281	 554.045
11090	  0.2400	  5.6160	   9.289	 554.545
11100	  0.2400	  5.6248	   9.297	 555.045
11110	  0.2400	  5.6323	   9.305	 555.545
11111	  0.2400	  5.6335	   9.306	 555.595
ControlMode:	0
Rate:	  1.0000
(null)
4
step	1
0
5.000000
0.000000
1
1
0.500000
2
step	2
1
5.000000
0.000000
1
1
2.000000
3
step	3
5
2.000000
0.000000
1
0
30
4
step	4
8
0.000000
0.000000
0
0
0.000000
0
2