File: Ensaio de tração/Dados - Tração/P2-lacre omega 02.txt
0
Diameter:	   5.00
   1.00
Area:	  19.6350
GaugeLength:	  50.00
2009-1-1
A3
001
DataNumber:	3212
index	Load(kN)	Defor(mm)	Stroke(mm)	Time(s)
    0	  0.0100	  0.0088	   0.009	   0.045
    3	  0.0096	  0.0337	   0.034	   0.195
    6	  0.0100	  0.0587	   0.059	   0.345
    9	  0.0100	  0.0837	   0.084	   0.495
   12	  0.0096	  0.1088	   0.109	   0.645
   15	  0.0100	  0.1337	   0.134	   0.795
   18	  0.0104	  0.1587	   0.159	   0.945
   21	  0.0104	  0.1837	   0.184	   1.095
   24	  0.0104	  0.2087	   0.209	   1.245
   27	  0.0108	  0.2338	   0.234	   1.395
   30	  0.0108	  0.2587	   0.259	   1.545
   33	  0.0116	  0.2850	   0.285	   1.695
   36	  0.0116	  0.3088	   0.309	   1.845
   39	  0.0120	  0.3350	   0.335	   1.995
   42	  0.0116	  0.3600	   0.360	   2.145
   45	  0.0116	  0.3850	   0.385	   2.295
   48	  0.0116	  0.4100	   0.410	   2.445
   51	  0.0120	  0.4350	   0.435	   2.595
   54	  0.0120	  0.4600	   0.460	   2.745
   57	  0.0116	  0.4850	   0.485	   2.895
   60	  0.0120	  0.5100	   0.510	   3.045
   63	  0.0124	  0.5350	   0.535	   3.195
   66	  0.0120	  0.5600	   0.560	   3.345
   69	  0.0128	  0.5850	   0.585	   3.495
   72	  0.0128	  0.6100	   0.610	   3.645
   75	  0.0128	  0.6350	   0.635	   3.795
   78	  0.0128	  0.6612	   0.661	   3.945
   81	  0.0128	  0.6850	   0.685	   4.095
   84	  0.0136	  0.7113	   0.711	   4.245
   87	  0.0136	  0.7350	   0.735	   4.395
   90	  0.0136	  0.7612	   0.761	   4.545
   93	  0.0140	  0.7862	   0.786	   4.695
   96	  0.0140	  0.8112	   0.811	   4.845
   99	  0.0144	  0.8363	   0.836	   4.995
  102	  0.0132	  0.8612	   0.861	   5.145
  105	  0.0140	  0.8862	   0.886	   5.295
  108	  0.0152	  0.9112	   0.911	   5.445
  111	  0.0144	  0.9375	   0.938	   5.595
  114	  0.0148	  0.9625	   0.962	   5.745
  117	  0.0156	  0.9875	   0.987	   5.895
  120	  0.0152	  1.0125	   1.012	   6.045
  123	  0.0164	  1.0375	   1.038	   6.195
  126	  0.0156	  1.0625	   1.062	   6.345
  129	  0.0164	  1.0875	   1.087	   6.495
  132	  0.0160	  1.1125	   1.112	   6.645
  135	  0.0168	  1.1375	   1.137	   6.795
  138	  0.0172	  1.1637	   1.164	   6.945
  141	  0.0168	  1.1888	   1.189	   7.095
  144	  0.0176	  1.2138	   1.214	   7.245
  147	  0.0184	  1.2387	   1.239	   7.395
  150	  0.0184	  1.2637	   1.264	   7.545
  153	  0.0184	  1.2887	   1.289	   7.695
  156	  0.0188	  1.3138	   1.314	   7.845
  159	  0.0196	  1.3388	   1.339	   7.995
  162	  0.0192	  1.3637	   1.364	   8.145
  165	  0.0196	  1.3887	   1.389	   8.295
  168	  0.0192	  1.4137	   1.414	   8.445
  171	  0.0192	  1.4387	   1.439	   8.595
  174	  0.0204	  1.4650	   1.465	   8.745
  177	  0.0204	  1.4900	   1.490	   8.895
  180	  0.0212	  1.5150	   1.515	   9.045
  183	  0.0204	  1.5400	   1.540	   9.195
  186	  0.0220	  1.5650	   1.565	   9.345
  189	  0.0220	  1.5900	   1.590	   9.495
  192	  0.0216	  1.6150	   1.615	   9.645
  195	  0.0228	  1.6400	   1.640	   9.795
  198	  0.0228	  1.6650	   1.665	   9.945
  201	  0.0232	  1.6900	   1.690	  10.095
  204	  0.0232	  1.7150	   1.715	  10.245
  207	  0.0232	  1.7400	   1.740	  10.395
  210	  0.0228	  1.7650	   1.765	  10.545
  213	  0.0240	  1.7912	   1.791	  10.695
  216	  0.0248	  1.8150	   1.815	  10.845
  219	  0.0248	  1.8400	   1.840	  10.995
  222	  0.0248	  1.8650	   1.865	  11.145
  225	  0.0252	  1.8913	   1.891	  11.295
  228	  0.0268	  1.9162	   1.916	  11.445
  231	  0.0260	  1.9412	   1.941	  11.595
  234	  0.0264	  1.9662	   1.966	  11.745
  237	  0.0260	  1.9912	   1.991	  11.895
  240	  0.0264	  2.0162	   2.016	  12.045
  243	  0.0276	  2.0412	   2.041	  12.195
  246	  0.0288	  2.0662	   2.066	  12.345
  249	  0.0276	  2.0912	   2.091	  12.495
  252	  0.0276	  2.1163	   2.116	  12.645
  255	  0.0284	  2.1412	   2.141	  12.795
  258	  0.0284	  2.1662	   2.166	  12.945
  261	  0.0292	  2.1912	   2.191	  13.095
  264	  0.0296	  2.2175	   2.217	  13.245
  267	  0.0300	  2.2425	   2.243	  13.395
  270	  0.0300	  2.2675	   2.267	  13.545
  273	  0.0312	  2.2925	   2.293	  13.695
  276	  0.0312	  2.3175	   2.317	  13.845
  279	  0.0320	  2.3425	   2.342	  13.995
  282	  0.0320	  2.3675	   2.367	  14.145
  285	  0.0324	  2.3925	   2.392	  14.295
  288	  0.0324	  2.4175	   2.418	  14.445
  291	  0.0336	  2.4425	   2.442	  14.595
  294	  0.0328	  2.4675	   2.467	  14.745
  297	  0.0336	  2.4925	   2.492	  14.895
  300	  0.0340	  2.5175	   2.517	  15.045
  303	  0.0340	  2.5425	   2.543	  15.195
  306	  0.0352	  2.5675	   2.567	  15.345
  309	  0.0348	  2.5925	   2.592	  15.495
  312	  0.0352	  2.6175	   2.617	  15.645
  315	  0.0356	  2.6425	   2.642	  15.795
  318	  0.0352	  2.6675	   2.668	  15.945
  321	  0.0368	  2.6925	   2.692	  16.095
  324	  0.0376	  2.7175	   2.717	  16.245
  327	  0.0372	  2.7425	   2.742	  16.395
  330	  0.0384	  2.7675	   2.767	  16.545
  333	  0.0384	  2.7925	   2.793	  16.695
  336	  0.0388	  2.8175	   2.817	  16.845
  339	  0.0396	  2.8425	   2.842	  16.995
  342	  0.0404	  2.8675	   2.867	  17.145
  345	  0.0412	  2.8925	   2.892	  17.295
  348	  0.0408	  2.9175	   2.918	  17.445
  351	  0.0408	  2.9425	   2.942	  17.595
  354	  0.0412	  2.9675	   2.967	  17.745
  357	  0.0416	  2.9925	   2.992	  17.895
  360	  0.0420	  3.0175	   3.017	  18.045
  363	  0.0432	  3.0425	   3.043	  18.195
  366	  0.0432	  3.0675	   3.067	  18.345
  369	  0.0440	  3.0925	   3.092	  18.495
  372	  0.0448	  3.1175	   3.117	  18.645
  375	  0.0456	  3.1425	   3.142	  18.795
  378	  0.0452	  3.1675	   3.168	  18.945
  381	  0.0464	  3.1925	   3.192	  19.095
  384	  0.0472	  3.2175	   3.217	  19.245
  387	  0.0468	  3.2425	   3.242	  19.395
  390	  0.0476	  3.2675	   3.267	  19.545
  393	  0.0480	  3.2925	   3.293	  19.695
  396	  0.0492	  3.3175	   3.317	  19.845
  399	  0.0484	  3.3425	   3.342	  19.995
  402	  0.0492	  3.3675	   3.367	  20.145
  405	  0.0500	  3.3925	   3.392	  20.295
  408	  0.0508	  3.4175	   3.418	  20.445
  411	  0.0512	  3.4425	   3.442	  20.595
  414	  0.0516	  3.4675	   3.467	  20.745
  417	  0.0528	  3.4925	   3.492	  20.895
  420	  0.0520	  3.5175	   3.517	  21.045
  423	  0.0532	  3.5425	   3.543	  21.195
  426	  0.0532	  3.5675	   3.567	  21.345
  429	  0.0528	  3.5925	   3.592	  21.495
  432	  0.0548	  3.6175	   3.617	  21.645
  435	  0.0552	  3.6425	   3.642	  21.795
  438	  0.0544	  3.6675	   3.668	  21.945
  441	  0.0556	  3.6925	   3.692	  22.095
  444	  0.0560	  3.7175	   3.717	  22.245
  447	  0.0564	  3.7425	   3.742	  22.395
  450	  0.0564	  3.7675	   3.767	  22.545
  453	  0.0576	  3.7925	   3.793	  22.695
  456	  0.0584	  3.8175	   3.817	  22.845
  459	  0.0600	  3.8425	   3.842	  22.995
  462	  0.0592	  3.8675	   3.867	  23.145
  465	  0.0604	  3.8937	   3.894	  23.295
  468	  0.0604	  3.9187	   3.919	  23.445
  471	  0.0600	  3.9425	   3.942	  23.595
  474	  0.0616	  3.9688	   3.969	  23.745
  477	  0.0620	  3.9937	   3.994	  23.895
  480	  0.0624	  4.0187	   4.019	  24.045
  483	  0.0636	  4.0437	   4.044	  24.195
  486	  0.0628	  4.0687	   4.069	  24.345
  489	  0.0640	  4.0938	   4.094	  24.495
  492	  0.0640	  4.1188	   4.119	  24.645
  495	  0.0648	  4.1437	   4.144	  24.795
  498	  0.0648	  4.1687	   4.169	  24.945
  501	  0.0660	  4.1937	   4.194	  25.095
  504	  0.0676	  4.2188	   4.219	  25.245
  507	  0.0668	  4.2438	   4.244	  25.395
  510	  0.0676	  4.2700	   4.270	  25.545
  513	  0.0676	  4.2950	   4.295	  25.695
  516	  0.0684	  4.3200	   4.320	  25.845
  519	  0.0692	  4.3450	   4.345	  25.995
  522	  0.0696	  4.3700	   4.370	  26.145
  525	  0.0700	  4.3950	   4.395	  26.295
  528	  0.0704	  4.4200	   4.420	  26.445
  531	  0.0704	  4.4450	   4.445	  26.595
  534	  0.0712	  4.4700	   4.470	  26.745
  537	  0.0720	  4.4950	   4.495	  26.895
  540	  0.0728	  4.5200	   4.520	  27.045
  543	  0.0732	  4.5450	   4.545	  27.195
  546	  0.0736	  4.5700	   4.570	  27.345
  549	  0.0744	  4.5950	   4.595	  27.495
  552	  0.0744	  4.6212	   4.621	  27.645
  555	  0.0744	  4.6462	   4.646	  27.795
  558	  0.0748	  4.6712	   4.671	  27.945
  561	  0.0752	  4.6962	   4.696	  28.095
  564	  0.0760	  4.7213	   4.721	  28.245
  567	  0.0764	  4.7462	   4.746	  28.395
  570	  0.0772	  4.7712	   4.771	  28.545
  573	  0.0776	  4.7962	   4.796	  28.695
  576	  0.0780	  4.8212	   4.821	  28.845
  579	  0.0788	  4.8463	   4.846	  28.995
  582	  0.0792	  4.8712	   4.871	  29.145
  585	  0.0792	  4.8975	   4.898	  29.295
  588	  0.0796	  4.9225	   4.922	  29.445
  591	  0.0808	  4.9475	   4.947	  29.595
  594	  0.0812	  4.9725	   4.972	  29.745
  597	  0.0816	  4.9975	   4.997	  29.895
  600	  0.0820	  5.0225	   5.023	  30.045
  603	  0.0832	  5.0475	   5.047	  30.195
  606	  0.0832	  5.0738	   5.074	  30.345
  609	  0.0844	  5.0988	   5.099	  30.495
  612	  0.0840	  5.1237	   5.124	  30.645
  615	  0.0852	  5.1487	   5.149	  30.795
  618	  0.0852	  5.1737	   5.174	  30.945
  621	  0.0856	  5.1988	   5.199	  31.095
  624	  0.0864	  5.2238	   5.224	  31.245
  627	  0.0868	  5.2500	   5.250	  31.395
  630	  0.0872	  5.2750	   5.275	  31.545
  633	  0.0876	  5.3000	   5.300	  31.695
  636	  0.0876	  5.3250	   5.325	  31.845
  639	  0.0888	  5.3500	   5.350	  31.995
  642	  0.0892	  5.3750	   5.375	  32.145
  645	  0.0884	  5.4012	   5.401	  32.295
  648	  0.0896	  5.4262	   5.426	  32.445
  651	  0.0900	  5.4513	   5.451	  32.595
  654	  0.0908	  5.4762	   5.476	  32.745
  657	  0.0912	  5.5012	   5.501	  32.895
  660	  0.0920	  5.5262	   5.526	  33.045
  663	  0.0916	  5.5512	   5.551	  33.195
  666	  0.0920	  5.5763	   5.576	  33.345
  669	  0.0924	  5.6012	   5.601	  33.495
  672	  0.0940	  5.6262	   5.626	  33.645
  675	  0.0940	  5.6512	   5.651	  33.795
  678	  0.0940	  5.6775	   5.677	  33.945
  681	  0.0952	  5.7025	   5.702	  34.095
  684	  0.0956	  5.7275	   5.727	  34.245
  687	  0.0960	  5.7525	   5.753	  34.395
  690	  0.0960	  5.7775	   5.777	  34.545
  693	  0.0960	  5.8025	   5.802	  34.695
  696	  0.0972	  5.8275	   5.827	  34.845
  699	  0.0972	  5.8525	   5.852	  34.995
  702	  0.0976	  5.8775	   5.878	  35.145
  705	  0.0976	  5.9025	   5.902	  35.295
  708	  0.0980	  5.9288	   5.929	  35.445
  711	  0.0984	  5.9537	   5.954	  35.595
  714	  0.0996	  5.9787	   5.979	  35.745
  717	  0.1000	  6.0037	   6.004	  35.895
  720	  0.1008	  6.0287	   6.029	  36.045
  723	  0.1012	  6.0538	   6.054	  36.195
  726	  0.1012	  6.0787	   6.079	  36.345
  729	  0.1016	  6.1050	   6.105	  36.495
  732	  0.1028	  6.1300	   6.130	  36.645
  735	  0.1020	  6.1550	   6.155	  36.795
  738	  0.1032	  6.1800	   6.180	  36.945
  741	  0.1032	  6.2050	   6.205	  37.095
  744	  0.1036	  6.2300	   6.230	  37.245
  747	  0.1040	  6.2550	   6.255	  37.395
  750	  0.1044	  6.2800	   6.280	  37.545
  753	  0.1048	  6.3050	   6.305	  37.695
  756	  0.1052	  6.3300	   6.330	  37.845
  759	  0.1060	  6.3550	   6.355	  37.995
  762	  0.1072	  6.3812	   6.381	  38.145
  765	  0.1068	  6.4062	   6.406	  38.295
  768	  0.1072	  6.4312	   6.431	  38.445
  771	  0.1072	  6.4562	   6.456	  38.595
  774	  0.1076	  6.4812	   6.481	  38.745
  777	  0.1084	  6.5062	   6.506	  38.895
  780	  0.1088	  6.5312	   6.531	  39.045
  783	  0.1092	  6.5562	   6.556	  39.195
  786	  0.1096	  6.5812	   6.581	  39.345
  789	  0.1100	  6.6062	   6.606	  39.495
  792	  0.1108	  6.6312	   6.631	  39.645
  795	  0.1116	  6.6562	   6.656	  39.795
  798	  0.1116	  6.6812	   6.681	  39.945
  801	  0.1120	  6.7062	   6.706	  40.095
  804	  0.1120	  6.7312	   6.731	  40.245
  807	  0.1132	  6.7562	   6.756	  40.395
  810	  0.1136	  6.7812	   6.781	  40.545
  813	  0.1132	  6.8062	   6.806	  40.695
  816	  0.1136	  6.8312	   6.831	  40.845
  819	  0.1144	  6.8562	   6.856	  40.995
  822	  0.1152	  6.8812	   6.881	  41.145
  825	  0.1156	  6.9062	   6.906	  41.295
  828	  0.1152	  6.9312	   6.931	  41.445
  831	  0.1164	  6.9562	   6.956	  41.595
  834	  0.1160	  6.9812	   6.981	  41.745
  837	  0.1160	  7.0062	   7.006	  41.895
  840	  0.1164	  7.0312	   7.031	  42.045
  843	  0.1172	  7.0562	   7.056	  42.195
  846	  0.1172	  7.0812	   7.081	  42.345
  849	  0.1180	  7.1062	   7.106	  42.495
  852	  0.1180	  7.1312	   7.131	  42.645
  855	  0.1192	  7.1562	   7.156	  42.795
  858	  0.1188	  7.1812	   7.181	  42.945
  861	  0.1192	  7.2062	   7.206	  43.095
  864	  0.1200	  7.2312	   7.231	  43.245
  867	  0.1204	  7.2562	   7.256	  43.395
  870	  0.1208	  7.2812	   7.281	  43.545
  873	  0.1216	  7.3062	   7.306	  43.695
  876	  0.1220	  7.3312	   7.331	  43.845
  879	  0.1228	  7.3562	   7.356	  43.995
  882	  0.1224	  7.3812	   7.381	  44.145
  885	  0.1224	  7.4062	   7.406	  44.295
  888	  0.1228	  7.4312	   7.431	  44.445
  891	  0.1232	  7.4562	   7.456	  44.595
  894	  0.1240	  7.4812	   7.481	  44.745
  897	  0.1248	  7.5062	   7.506	  44.895
  900	  0.1244	  7.5312	   7.531	  45.045
  903	  0.1252	  7.5562	   7.556	  45.195
  906	  0.1252	  7.5812	   7.581	  45.345
  909	  0.1260	  7.6062	   7.606	  45.495
  912	  0.1264	  7.6312	   7.631	  45.645
  915	  0.1268	  7.6562	   7.656	  45.795
  918	  0.1276	  7.6812	   7.681	  45.945
  921	  0.1276	  7.7062	   7.706	  46.095
  924	  0.1280	  7.7312	   7.731	  46.245
  927	  0.1280	  7.7562	   7.756	  46.395
  930	  0.1284	  7.7812	   7.781	  46.545
  933	  0.1292	  7.8062	   7.806	  46.695
  936	  0.1288	  7.8312	   7.831	  46.845
  939	  0.1296	  7.8562	   7.856	  46.995
  942	  0.1296	  7.8812	   7.881	  47.145
  945	  0.1304	  7.9062	   7.906	  47.295
  948	  0.1304	  7.9312	   7.931	  47.445
  951	  0.1308	  7.9562	   7.956	  47.595
  954	  0.1312	  7.9812	   7.981	  47.745
  957	  0.1316	  8.0062	   8.006	  47.895
  960	  0.1312	  8.0312	   8.031	  48.045
  963	  0.1320	  8.0575	   8.057	  48.195
  966	  0.1328	  8.0813	   8.081	  48.345
  969	  0.1324	  8.1062	   8.106	  48.495
  972	  0.1332	  8.1312	   8.131	  48.645
  975	  0.1336	  8.1575	   8.158	  48.795
  978	  0.1340	  8.1825	   8.182	  48.945
  981	  0.1344	  8.2075	   8.207	  49.095
  984	  0.1344	  8.2325	   8.233	  49.245
  987	  0.1352	  8.2575	   8.257	  49.395
  990	  0.1352	  8.2825	   8.283	  49.545
  993	  0.1364	  8.3075	   8.307	  49.695
  996	  0.1376	  8.3325	   8.332	  49.845
  999	  0.1372	  8.3575	   8.358	  49.995
 1002	  0.1372	  8.3825	   8.382	  50.145
 1005	  0.1372	  8.4075	   8.408	  50.295
 1008	  0.1376	  8.4325	   8.432	  50.445
 1011	  0.1388	  8.4575	   8.457	  50.595
 1014	  0.1388	  8.4825	   8.483	  50.745
 1017	  0.1388	  8.5075	   8.507	  50.895
 1020	  0.1400	  8.5325	   8.533	  51.045
 1023	  0.1404	  8.5575	   8.557	  51.195
 1026	  0.1400	  8.5825	   8.582	  51.345
 1029	  0.1404	  8.6075	   8.608	  51.495
 1032	  0.1408	  8.6325	   8.632	  51.645
 1035	  0.1408	  8.6575	   8.658	  51.795
 1038	  0.1412	  8.6825	   8.682	  51.945
 1041	  0.1424	  8.7087	   8.709	  52.095
 1044	  0.1420	  8.7337	   8.734	  52.245
 1047	  0.1428	  8.7587	   8.759	  52.395
 1050	  0.1424	  8.7837	   8.784	  52.545
 1053	  0.1428	  8.8088	   8.809	  52.695
 1056	  0.1432	  8.8337	   8.834	  52.845
 1059	  0.1436	  8.8587	   8.859	  52.995
 1062	  0.1440	  8.8837	   8.884	  53.145
 1065	  0.1440	  8.9087	   8.909	  53.295
 1068	  0.1444	  8.9338	   8.934	  53.445
 1071	  0.1440	  8.9587	   8.959	  53.595
 1074	  0.1448	  8.9837	   8.984	  53.745
 1077	  0.1456	  9.0087	   9.009	  53.895
 1080	  0.1452	  9.0337	   9.034	  54.045
 1083	  0.1456	  9.0588	   9.059	  54.195
 1086	  0.1464	  9.0837	   9.084	  54.345
 1089	  0.1460	  9.1087	   9.109	  54.495
 1092	  0.1464	  9.1337	   9.134	  54.645
 1095	  0.1484	  9.1600	   9.160	  54.795
 1098	  0.1472	  9.1850	   9.185	  54.945
 1101	  0.1480	  9.2100	   9.210	  55.095
 1104	  0.1480	  9.2350	   9.235	  55.245
 1107	  0.1480	  9.2600	   9.260	  55.395
 1110	  0.1492	  9.2850	   9.285	  55.545
 1113	  0.1484	  9.3112	   9.311	  55.695
 1116	  0.1492	  9.3362	   9.336	  55.845
 1119	  0.1496	  9.3612	   9.361	  55.995
 1122	  0.1492	  9.3862	   9.386	  56.145
 1125	  0.1504	  9.4113	   9.411	  56.295
 1128	  0.1500	  9.4362	   9.436	  56.445
 1131	  0.1504	  9.4612	   9.461	  56.595
 1134	  0.1504	  9.4875	   9.488	  56.745
 1137	  0.1516	  9.5125	   9.512	  56.895
 1140	  0.1512	  9.5375	   9.537	  57.045
 1143	  0.1516	  9.5625	   9.562	  57.195
 1146	  0.1512	  9.5875	   9.587	  57.345
 1149	  0.1524	  9.6137	   9.614	  57.495
 1152	  0.1516	  9.6388	   9.639	  57.645
 1155	  0.1524	  9.6637	   9.664	  57.795
 1158	  0.1528	  9.6887	   9.689	  57.945
 1161	  0.1532	  9.7137	   9.714	  58.095
 1164	  0.1528	  9.7400	   9.740	  58.245
 1167	  0.1536	  9.7650	   9.765	  58.395
 1170	  0.1536	  9.7900	   9.790	  58.545
 1173	  0.1540	  9.8150	   9.815	  58.695
 1176	  0.1540	  9.8400	   9.840	  58.845
 1179	  0.1540	  9.8650	   9.865	  58.995
 1182	  0.1540	  9.8900	   9.890	  59.145
 1185	  0.1552	  9.9150	   9.915	  59.295
 1188	  0.1560	  9.9412	   9.941	  59.445
 1191	  0.1564	  9.9662	   9.966	  59.595
 1194	  0.1556	  9.9913	   9.991	  59.745
 1197	  0.1560	 10.0162	  10.016	  59.895
 1200	  0.1572	 10.0413	  10.041	  60.045
 1203	  0.1572	 10.0662	  10.066	  60.195
 1206	  0.1580	 10.0912	  10.091	  60.345
 1209	  0.1576	 10.1163	  10.116	  60.495
 1212	  0.1584	 10.1412	  10.141	  60.645
 1215	  0.1580	 10.1663	  10.166	  60.795
 1218	  0.1588	 10.1925	  10.193	  60.945
 1221	  0.1584	 10.2175	  10.217	  61.095
 1224	  0.1588	 10.2425	  10.242	  61.245
 1227	  0.1588	 10.2675	  10.267	  61.395
 1230	  0.1600	 10.2925	  10.292	  61.545
 1233	  0.1596	 10.3175	  10.318	  61.695
 1236	  0.1604	 10.3425	  10.342	  61.845
 1239	  0.1600	 10.3675	  10.367	  61.995
 1242	  0.1612	 10.3925	  10.392	  62.145
 1245	  0.1612	 10.4175	  10.417	  62.295
 1248	  0.1612	 10.4425	  10.443	  62.445
 1251	  0.1604	 10.4675	  10.467	  62.595
 1254	  0.1616	 10.4925	  10.492	  62.745
 1257	  0.1616	 10.5175	  10.517	  62.895
 1260	  0.1616	 10.5425	  10.542	  63.045
 1263	  0.1620	 10.5675	  10.568	  63.195
 1266	  0.1628	 10.5925	  10.592	  63.345
 1269	  0.1628	 10.6175	  10.617	  63.495
 1272	  0.1632	 10.6425	  10.642	  63.645
 1275	  0.1636	 10.6675	  10.667	  63.795
 1278	  0.1648	 10.6925	  10.693	  63.945
 1281	  0.1644	 10.7175	  10.717	  64.095
 1284	  0.1648	 10.7425	  10.742	  64.245
 1287	  0.1644	 10.7675	  10.767	  64.395
 1290	  0.1648	 10.7925	  10.792	  64.545
 1293	  0.1644	 10.8175	  10.818	  64.695
 1296	  0.1656	 10.8425	  10.842	  64.845
 1299	  0.1660	 10.8675	  10.867	  64.995
 1302	  0.1660	 10.8925	  10.892	  65.145
 1305	  0.1656	 10.9175	  10.917	  65.295
 1308	  0.1664	 10.9425	  10.943	  65.445
 1311	  0.1660	 10.9675	  10.967	  65.595
 1314	  0.1664	 10.9925	  10.992	  65.745
 1317	  0.1672	 11.0175	  11.017	  65.895
 1320	  0.1676	 11.0425	  11.042	  66.045
 1323	  0.1680	 11.0675	  11.068	  66.195
 1326	  0.1684	 11.0925	  11.092	  66.345
 1329	  0.1676	 11.1175	  11.117	  66.495
 1332	  0.1680	 11.1425	  11.142	  66.645
 1335	  0.1688	 11.1675	  11.167	  66.795
 1338	  0.1692	 11.1925	  11.193	  66.945
 1341	  0.1688	 11.2175	  11.217	  67.095
 1344	  0.1688	 11.2425	  11.242	  67.245
 1347	  0.1688	 11.2675	  11.267	  67.395
 1350	  0.1696	 11.2925	  11.292	  67.545
 1353	  0.1704	 11.3175	  11.318	  67.695
 1356	  0.1700	 11.3425	  11.342	  67.845
 1359	  0.1708	 11.3675	  11.367	  67.995
 1362	  0.1708	 11.3925	  11.392	  68.145
 1365	  0.1712	 11.4175	  11.417	  68.295
 1368	  0.1712	 11.4425	  11.443	  68.445
 1371	  0.1708	 11.4675	  11.467	  68.595
 1374	  0.1704	 11.4925	  11.492	  68.745
 1377	  0.1716	 11.5175	  11.517	  68.895
 1380	  0.1724	 11.5425	  11.542	  69.045
 1383	  0.1724	 11.5675	  11.568	  69.195
 1386	  0.1724	 11.5925	  11.592	  69.345
 1389	  0.1728	 11.6175	  11.617	  69.495
 1392	  0.1732	 11.6425	  11.642	  69.645
 1395	  0.1736	 11.6675	  11.667	  69.795
 1398	  0.1732	 11.6925	  11.693	  69.945
 1401	  0.1728	 11.7175	  11.717	  70.095
 1404	  0.1732	 11.7425	  11.742	  70.245
 1407	  0.1728	 11.7675	  11.767	  70.395
 1410	  0.1740	 11.7925	  11.792	  70.545
 1413	  0.1740	 11.8175	  11.818	  70.695
 1416	  0.1744	 11.8425	  11.842	  70.845
 1419	  0.1748	 11.8675	  11.867	  70.995
 1422	  0.1752	 11.8925	  11.892	  71.145
 1425	  0.1748	 11.9175	  11.917	  71.295
 1428	  0.1752	 11.9425	  11.943	  71.445
 1431	  0.1756	 11.9675	  11.967	  71.595
 1434	  0.1760	 11.9925	  11.992	  71.745
 1437	  0.1752	 12.0175	  12.017	  71.895
 1440	  0.1760	 12.0425	  12.042	  72.045
 1443	  0.1768	 12.0675	  12.068	  72.195
 1446	  0.1776	 12.0925	  12.092	  72.345
 1449	  0.1768	 12.1175	  12.117	  72.495
 1452	  0.1772	 12.1425	  12.142	  72.645
 1455	  0.1776	 12.1675	  12.167	  72.795
 1458	  0.1776	 12.1925	  12.193	  72.945
 1461	  0.1780	 12.2175	  12.217	  73.095
 1464	  0.1772	 12.2425	  12.242	  73.245
 1467	  0.1780	 12.2675	  12.267	  73.395
 1470	  0.1784	 12.2925	  12.292	  73.545
 1473	  0.1788	 12.3187	  12.319	  73.695
 1476	  0.1792	 12.3438	  12.344	  73.845
 1479	  0.1796	 12.3687	  12.369	  73.995
 1482	  0.1800	 12.3938	  12.394	  74.145
 1485	  0.1796	 12.4187	  12.419	  74.295
 1488	  0.1804	 12.4425	  12.443	  74.445
 1491	  0.1804	 12.4675	  12.467	  74.595
 1494	  0.1812	 12.4925	  12.492	  74.745
 1497	  0.1808	 12.5175	  12.517	  74.895
 1500	  0.1816	 12.5425	  12.542	  75.045
 1503	  0.1816	 12.5675	  12.568	  75.195
 1506	  0.1816	 12.5925	  12.592	  75.345
 1509	  0.1820	 12.6187	  12.619	  75.495
 1512	  0.1824	 12.6438	  12.644	  75.645
 1515	  0.1832	 12.6687	  12.669	  75.795
 1518	  0.1828	 12.6937	  12.694	  75.945
 1521	  0.1832	 12.7188	  12.719	  76.095
 1524	  0.1828	 12.7437	  12.744	  76.245
 1527	  0.1832	 12.7688	  12.769	  76.395
 1530	  0.1828	 12.7937	  12.794	  76.545
 1533	  0.1836	 12.8187	  12.819	  76.695
 1536	  0.1840	 12.8438	  12.844	  76.845
 1539	  0.1844	 12.8687	  12.869	  76.995
 1542	  0.1844	 12.8937	  12.894	  77.145
 1545	  0.1844	 12.9187	  12.919	  77.295
 1548	  0.1852	 12.9437	  12.944	  77.445
 1551	  0.1848	 12.9688	  12.969	  77.595
 1554	  0.1852	 12.9937	  12.994	  77.745
 1557	  0.1844	 13.0200	  13.020	  77.895
 1560	  0.1856	 13.0450	  13.045	  78.045
 1563	  0.1852	 13.0700	  13.070	  78.195
 1566	  0.1852	 13.0950	  13.095	  78.345
 1569	  0.1856	 13.1200	  13.120	  78.495
 1572	  0.1852	 13.1450	  13.145	  78.645
 1575	  0.1864	 13.1700	  13.170	  78.795
 1578	  0.1856	 13.1950	  13.195	  78.945
 1581	  0.1856	 13.2200	  13.220	  79.095
 1584	  0.1872	 13.2450	  13.245	  79.245
 1587	  0.1872	 13.2700	  13.270	  79.395
 1590	  0.1868	 13.2962	  13.296	  79.545
 1593	  0.1860	 13.3212	  13.321	  79.695
 1596	  0.1864	 13.3462	  13.346	  79.845
 1599	  0.1872	 13.3713	  13.371	  79.995
 1602	  0.1872	 13.3962	  13.396	  80.145
 1605	  0.1880	 13.4225	  13.422	  80.295
 1608	  0.1876	 13.4475	  13.447	  80.445
 1611	  0.1880	 13.4725	  13.472	  80.595
 1614	  0.1884	 13.4975	  13.497	  80.745
 1617	  0.1880	 13.5225	  13.523	  80.895
 1620	  0.1888	 13.5475	  13.547	  81.045
 1623	  0.1888	 13.5725	  13.572	  81.195
 1626	  0.1892	 13.5975	  13.597	  81.345
 1629	  0.1888	 13.6225	  13.622	  81.495
 1632	  0.1892	 13.6475	  13.648	  81.645
 1635	  0.1892	 13.6737	  13.674	  81.795
 1638	  0.1896	 13.6987	  13.699	  81.945
 1641	  0.1896	 13.7238	  13.724	  82.095
 1644	  0.1900	 13.7487	  13.749	  82.245
 1647	  0.1896	 13.7737	  13.774	  82.395
 1650	  0.1904	 13.7987	  13.799	  82.545
 1653	  0.1904	 13.8237	  13.824	  82.695
 1656	  0.1900	 13.8488	  13.849	  82.845
 1659	  0.1904	 13.8737	  13.874	  82.995
 1662	  0.1912	 13.9000	  13.900	  83.145
 1665	  0.1912	 13.9250	  13.925	  83.295
 1668	  0.1916	 13.9500	  13.950	  83.445
 1671	  0.1920	 13.9750	  13.975	  83.595
 1674	  0.1924	 14.0000	  14.000	  83.745
 1677	  0.1920	 14.0250	  14.025	  83.895
 1680	  0.1924	 14.0500	  14.050	  84.045
 1683	  0.1928	 14.0750	  14.075	  84.195
 1686	  0.1924	 14.1000	  14.100	  84.345
 1689	  0.1924	 14.1250	  14.125	  84.495
 1692	  0.1932	 14.1500	  14.150	  84.645
 1695	  0.1940	 14.1750	  14.175	  84.795
 1698	  0.1940	 14.2000	  14.200	  84.945
 1701	  0.1944	 14.2250	  14.225	  85.095
 1704	  0.1940	 14.2500	  14.250	  85.245
 1707	  0.1944	 14.2762	  14.276	  85.395
 1710	  0.1940	 14.3012	  14.301	  85.545
 1713	  0.1940	 14.3263	  14.326	  85.695
 1716	  0.1944	 14.3512	  14.351	  85.845
 1719	  0.1956	 14.3762	  14.376	  85.995
 1722	  0.1956	 14.4012	  14.401	  86.145
 1725	  0.1948	 14.4262	  14.426	  86.295
 1728	  0.1948	 14.4513	  14.451	  86.445
 1731	  0.1944	 14.4762	  14.476	  86.595
 1734	  0.1952	 14.5012	  14.501	  86.745
 1737	  0.1960	 14.5262	  14.526	  86.895
 1740	  0.1956	 14.5512	  14.551	  87.045
 1743	  0.1964	 14.5763	  14.576	  87.195
 1746	  0.1960	 14.6012	  14.601	  87.345
 1749	  0.1956	 14.6262	  14.626	  87.495
 1752	  0.1968	 14.6512	  14.651	  87.645
 1755	  0.1968	 14.6775	  14.677	  87.795
 1758	  0.1972	 14.7025	  14.702	  87.945
 1761	  0.1968	 14.7275	  14.727	  88.095
 1764	  0.1972	 14.7525	  14.752	  88.245
 1767	  0.1984	 14.7775	  14.777	  88.395
 1770	  0.1980	 14.8025	  14.802	  88.545
 1773	  0.1980	 14.8275	  14.827	  88.695
 1776	  0.1984	 14.8525	  14.852	  88.845
 1779	  0.1980	 14.8775	  14.877	  88.995
 1782	  0.1988	 14.9025	  14.902	  89.145
 1785	  0.1976	 14.9275	  14.927	  89.295
 1788	  0.1976	 14.9537	  14.954	  89.445
 1791	  0.1988	 14.9775	  14.977	  89.595
 1794	  0.1992	 15.0037	  15.004	  89.745
 1797	  0.1988	 15.0275	  15.027	  89.895
 1800	  0.2000	 15.0525	  15.052	  90.045
 1803	  0.2000	 15.0787	  15.079	  90.195
 1806	  0.2000	 15.1037	  15.104	  90.345
 1809	  0.1996	 15.1287	  15.129	  90.495
 1812	  0.1996	 15.1537	  15.154	  90.645
 1815	  0.2000	 15.1788	  15.179	  90.795
 1818	  0.2008	 15.2037	  15.204	  90.945
 1821	  0.2008	 15.2287	  15.229	  91.095
 1824	  0.2008	 15.2537	  15.254	  91.245
 1827	  0.2008	 15.2787	  15.279	  91.395
 1830	  0.2012	 15.3038	  15.304	  91.545
 1833	  0.2012	 15.3287	  15.329	  91.695
 1836	  0.2020	 15.3537	  15.354	  91.845
 1839	  0.2016	 15.3787	  15.379	  91.995
 1842	  0.2016	 15.4037	  15.404	  92.145
 1845	  0.2016	 15.4288	  15.429	  92.295
 1848	  0.2024	 15.4537	  15.454	  92.445
 1851	  0.2024	 15.4787	  15.479	  92.595
 1854	  0.2016	 15.5037	  15.504	  92.745
 1857	  0.2016	 15.5300	  15.530	  92.895
 1860	  0.2024	 15.5550	  15.555	  93.045
 1863	  0.2028	 15.5800	  15.580	  93.195
 1866	  0.2024	 15.6037	  15.604	  93.345
 1869	  0.2020	 15.6287	  15.629	  93.495
 1872	  0.2024	 15.6537	  15.654	  93.645
 1875	  0.2024	 15.6800	  15.680	  93.795
 1878	  0.2024	 15.7050	  15.705	  93.945
 1881	  0.2020	 15.7300	  15.730	  94.095
 1884	  0.2032	 15.7550	  15.755	  94.245
 1887	  0.2036	 15.7800	  15.780	  94.395
 1890	  0.2028	 15.8050	  15.805	  94.545
 1893	  0.2036	 15.8300	  15.830	  94.695
 1896	  0.2036	 15.8550	  15.855	  94.845
 1899	  0.2040	 15.8800	  15.880	  94.995
 1902	  0.2040	 15.9050	  15.905	  95.145
 1905	  0.2040	 15.9300	  15.930	  95.295
 1908	  0.2032	 15.9550	  15.955	  95.445
 1911	  0.2044	 15.9800	  15.980	  95.595
 1914	  0.2040	 16.0050	  16.005	  95.745
 1917	  0.2044	 16.0300	  16.030	  95.895
 1920	  0.2044	 16.0550	  16.055	  96.045
 1923	  0.2044	 16.0812	  16.081	  96.195
 1926	  0.2052	 16.1062	  16.106	  96.345
 1929	  0.2052	 16.1300	  16.130	  96.495
 1932	  0.2048	 16.1550	  16.155	  96.645
 1935	  0.2056	 16.1800	  16.180	  96.795
 1938	  0.2060	 16.2062	  16.206	  96.945
 1941	  0.2056	 16.2312	  16.231	  97.095
 1944	  0.2052	 16.2563	  16.256	  97.245
 1947	  0.2064	 16.2812	  16.281	  97.395
 1950	  0.2064	 16.3062	  16.306	  97.545
 1953	  0.2064	 16.3312	  16.331	  97.695
 1956	  0.2064	 16.3562	  16.356	  97.845
 1959	  0.2068	 16.3813	  16.381	  97.995
 1962	  0.2072	 16.4062	  16.406	  98.145
 1965	  0.2072	 16.4312	  16.431	  98.295
 1968	  0.2072	 16.4562	  16.456	  98.445
 1971	  0.2072	 16.4812	  16.481	  98.595
 1974	  0.2072	 16.5063	  16.506	  98.745
 1977	  0.2076	 16.5312	  16.531	  98.895
 1980	  0.2084	 16.5562	  16.556	  99.045
 1983	  0.2084	 16.5825	  16.583	  99.195
 1986	  0.2080	 16.6062	  16.606	  99.345
 1989	  0.2088	 16.6325	  16.632	  99.495
 1992	  0.2080	 16.6575	  16.657	  99.645
 1995	  0.2084	 16.6825	  16.682	  99.795
 1998	  0.2088	 16.7075	  16.708	  99.945
 2001	  0.2088	 16.7325	  16.733	 100.095
 2004	  0.2092	 16.7575	  16.757	 100.245
 2007	  0.2100	 16.7825	  16.782	 100.395
 2010	  0.2104	 16.8075	  16.807	 100.545
 2013	  0.2092	 16.8325	  16.833	 100.695
 2016	  0.2100	 16.8575	  16.858	 100.845
 2019	  0.2108	 16.8825	  16.882	 100.995
 2022	  0.2108	 16.9075	  16.907	 101.145
 2025	  0.2104	 16.9325	  16.932	 101.295
 2028	  0.2104	 16.9587	  16.959	 101.445
 2031	  0.2104	 16.9825	  16.983	 101.595
 2034	  0.2112	 17.0087	  17.009	 101.745
 2037	  0.2108	 17.0338	  17.034	 101.895
 2040	  0.2104	 17.0588	  17.059	 102.045
 2043	  0.2104	 17.0837	  17.084	 102.195
 2046	  0.2108	 17.1087	  17.109	 102.345
 2049	  0.2116	 17.1337	  17.134	 102.495
 2052	  0.2112	 17.1588	  17.159	 102.645
 2055	  0.2108	 17.1838	  17.184	 102.795
 2058	  0.2112	 17.2087	  17.209	 102.945
 2061	  0.2116	 17.2337	  17.234	 103.095
 2064	  0.2116	 17.2587	  17.259	 103.245
 2067	  0.2116	 17.2838	  17.284	 103.395
 2070	  0.2120	 17.3100	  17.310	 103.545
 2073	  0.2112	 17.3350	  17.335	 103.695
 2076	  0.2120	 17.3587	  17.359	 103.845
 2079	  0.2124	 17.3837	  17.384	 103.995
 2082	  0.2128	 17.4088	  17.409	 104.145
 2085	  0.2120	 17.4338	  17.434	 104.295
 2088	  0.2124	 17.4587	  17.459	 104.445
 2091	  0.2120	 17.4837	  17.484	 104.595
 2094	  0.2128	 17.5100	  17.510	 104.745
 2097	  0.2132	 17.5350	  17.535	 104.895
 2100	  0.2136	 17.5600	  17.560	 105.045
 2103	  0.2140	 17.5850	  17.585	 105.195
 2106	  0.2140	 17.6100	  17.610	 105.345
 2109	  0.2140	 17.6350	  17.635	 105.495
 2112	  0.2144	 17.6600	  17.660	 105.645
 2115	  0.2144	 17.6850	  17.685	 105.795
 2118	  0.2136	 17.7100	  17.710	 105.945
 2121	  0.2144	 17.7350	  17.735	 106.095
 2124	  0.2144	 17.7612	  17.761	 106.245
 2127	  0.2148	 17.7862	  17.786	 106.395
 2130	  0.2152	 17.8112	  17.811	 106.545
 2133	  0.2152	 17.8363	  17.836	 106.695
 2136	  0.2152	 17.8612	  17.861	 106.845
 2139	  0.2152	 17.8862	  17.886	 106.995
 2142	  0.2148	 17.9112	  17.911	 107.145
 2145	  0.2152	 17.9362	  17.936	 107.295
 2148	  0.2160	 17.9613	  17.961	 107.445
 2151	  0.2156	 17.9862	  17.986	 107.595
 2154	  0.2156	 18.0125	  18.012	 107.745
 2157	  0.2156	 18.0375	  18.038	 107.895
 2160	  0.2164	 18.0625	  18.062	 108.045
 2163	  0.2160	 18.0875	  18.087	 108.195
 2166	  0.2176	 18.1125	  18.112	 108.345
 2169	  0.2164	 18.1375	  18.137	 108.495
 2172	  0.2168	 18.1625	  18.163	 108.645
 2175	  0.2172	 18.1875	  18.188	 108.795
 2178	  0.2168	 18.2125	  18.212	 108.945
 2181	  0.2164	 18.2375	  18.237	 109.095
 2184	  0.2172	 18.2625	  18.262	 109.245
 2187	  0.2164	 18.2875	  18.288	 109.395
 2190	  0.2176	 18.3137	  18.314	 109.545
 2193	  0.2180	 18.3387	  18.339	 109.695
 2196	  0.2180	 18.3638	  18.364	 109.845
 2199	  0.2176	 18.3888	  18.389	 109.995
 2202	  0.2180	 18.4137	  18.414	 110.145
 2205	  0.2188	 18.4387	  18.439	 110.295
 2208	  0.2184	 18.4637	  18.464	 110.445
 2211	  0.2184	 18.4888	  18.489	 110.595
 2214	  0.2188	 18.5138	  18.514	 110.745
 2217	  0.2192	 18.5387	  18.539	 110.895
 2220	  0.2196	 18.5637	  18.564	 111.045
 2223	  0.2188	 18.5887	  18.589	 111.195
 2226	  0.2192	 18.6138	  18.614	 111.345
 2229	  0.2200	 18.6388	  18.639	 111.495
 2232	  0.2192	 18.6637	  18.664	 111.645
 2235	  0.2196	 18.6900	  18.690	 111.795
 2238	  0.2200	 18.7150	  18.715	 111.945
 2241	  0.2200	 18.7400	  18.740	 112.095
 2244	  0.2192	 18.7650	  18.765	 112.245
 2247	  0.2204	 18.7887	  18.789	 112.395
 2250	  0.2196	 18.8150	  18.815	 112.545
 2253	  0.2200	 18.8400	  18.840	 112.695
 2256	  0.2208	 18.8650	  18.865	 112.845
 2259	  0.2204	 18.8900	  18.890	 112.995
 2262	  0.2204	 18.9150	  18.915	 113.145
 2265	  0.2208	 18.9400	  18.940	 113.295
 2268	  0.2208	 18.9650	  18.965	 113.445
 2271	  0.2216	 18.9900	  18.990	 113.595
 2274	  0.2212	 19.0150	  19.015	 113.745
 2277	  0.2212	 19.0400	  19.040	 113.895
 2280	  0.2216	 19.0650	  19.065	 114.045
 2283	  0.2220	 19.0900	  19.090	 114.195
 2286	  0.2216	 19.1150	  19.115	 114.345
 2289	  0.2220	 19.1400	  19.140	 114.495
 2292	  0.2216	 19.1650	  19.165	 114.645
 2295	  0.2220	 19.1900	  19.190	 114.795
 2298	  0.2220	 19.2150	  19.215	 114.945
 2301	  0.2224	 19.2400	  19.240	 115.095
 2304	  0.2220	 19.2650	  19.265	 115.245
 2307	  0.2224	 19.2900	  19.290	 115.395
 2310	  0.2224	 19.3150	  19.315	 115.545
 2313	  0.2224	 19.3400	  19.340	 115.695
 2316	  0.2228	 19.3650	  19.365	 115.845
 2319	  0.2224	 19.3900	  19.390	 115.995
 2322	  0.2228	 19.4150	  19.415	 116.145
 2325	  0.2236	 19.4400	  19.440	 116.295
 2328	  0.2236	 19.4637	  19.464	 116.445
 2331	  0.2236	 19.4888	  19.489	 116.595
 2334	  0.2244	 19.5150	  19.515	 116.745
 2337	  0.2244	 19.5400	  19.540	 116.895
 2340	  0.2248	 19.5650	  19.565	 117.045
 2343	  0.2244	 19.5900	  19.590	 117.195
 2346	  0.2248	 19.6150	  19.615	 117.345
 2349	  0.2248	 19.6400	  19.640	 117.495
 2352	  0.2252	 19.6650	  19.665	 117.645
 2355	  0.2248	 19.6900	  19.690	 117.795
 2358	  0.2248	 19.7150	  19.715	 117.945
 2361	  0.2244	 19.7400	  19.740	 118.095
 2364	  0.2248	 19.7650	  19.765	 118.245
 2367	  0.2252	 19.7900	  19.790	 118.395
 2370	  0.2252	 19.8162	  19.816	 118.545
 2373	  0.2248	 19.8412	  19.841	 118.695
 2376	  0.2252	 19.8662	  19.866	 118.845
 2379	  0.2264	 19.8912	  19.891	 118.995
 2382	  0.2256	 19.9163	  19.916	 119.145
 2385	  0.2268	 19.9412	  19.941	 119.295
 2388	  0.2264	 19.9662	  19.966	 119.445
 2391	  0.2264	 19.9912	  19.991	 119.595
 2394	  0.2264	 20.0162	  20.016	 119.745
 2397	  0.2264	 20.0413	  20.041	 119.895
 2400	  0.2264	 20.0662	  20.066	 120.045
 2403	  0.2260	 20.0912	  20.091	 120.195
 2406	  0.2264	 20.1162	  20.116	 120.345
 2409	  0.2268	 20.1412	  20.141	 120.495
 2412	  0.2272	 20.1663	  20.166	 120.645
 2415	  0.2268	 20.1912	  20.191	 120.795
 2418	  0.2276	 20.2162	  20.216	 120.945
 2421	  0.2264	 20.2412	  20.241	 121.095
 2424	  0.2272	 20.2662	  20.266	 121.245
 2427	  0.2272	 20.2913	  20.291	 121.395
 2430	  0.2280	 20.3162	  20.316	 121.545
 2433	  0.2284	 20.3412	  20.341	 121.695
 2436	  0.2280	 20.3650	  20.365	 121.845
 2439	  0.2284	 20.3900	  20.390	 121.995
 2442	  0.2284	 20.4150	  20.415	 122.145
 2445	  0.2292	 20.4400	  20.440	 122.295
 2448	  0.2288	 20.4650	  20.465	 122.445
 2451	  0.2284	 20.4900	  20.490	 122.595
 2454	  0.2292	 20.5162	  20.516	 122.745
 2457	  0.2292	 20.5400	  20.540	 122.895
 2460	  0.2288	 20.5650	  20.565	 123.045
 2463	  0.2292	 20.5900	  20.590	 123.195
 2466	  0.2292	 20.6150	  20.615	 123.345
 2469	  0.2292	 20.6412	  20.641	 123.495
 2472	  0.2292	 20.6663	  20.666	 123.645
 2475	  0.2300	 20.6912	  20.691	 123.795
 2478	  0.2292	 20.7162	  20.716	 123.945
 2481	  0.2292	 20.7412	  20.741	 124.095
 2484	  0.2300	 20.7662	  20.766	 124.245
 2487	  0.2304	 20.7913	  20.791	 124.395
 2490	  0.2300	 20.8162	  20.816	 124.545
 2493	  0.2308	 20.8412	  20.841	 124.695
 2496	  0.2300	 20.8662	  20.866	 124.845
 2499	  0.2300	 20.8912	  20.891	 124.995
 2502	  0.2296	 20.9163	  20.916	 125.145
 2505	  0.2300	 20.9412	  20.941	 125.295
 2508	  0.2300	 20.9662	  20.966	 125.445
 2511	  0.2300	 20.9912	  20.991	 125.595
 2514	  0.2308	 21.0162	  21.016	 125.745
 2517	  0.2312	 21.0413	  21.041	 125.895
 2520	  0.2308	 21.0662	  21.066	 126.045
 2523	  0.2312	 21.0912	  21.091	 126.195
 2526	  0.2320	 21.1162	  21.116	 126.345
 2529	  0.2324	 21.1412	  21.141	 126.495
 2532	  0.2320	 21.1675	  21.167	 126.645
 2535	  0.2324	 21.1925	  21.192	 126.795
 2538	  0.2316	 21.2175	  21.217	 126.945
 2541	  0.2316	 21.2425	  21.243	 127.095
 2544	  0.2312	 21.2675	  21.267	 127.245
 2547	  0.2320	 21.2925	  21.292	 127.395
 2550	  0.2328	 21.3175	  21.317	 127.545
 2553	  0.2320	 21.3425	  21.342	 127.695
 2556	  0.2328	 21.3675	  21.368	 127.845
 2559	  0.2328	 21.3925	  21.392	 127.995
 2562	  0.2332	 21.4175	  21.417	 128.145
 2565	  0.2332	 21.4425	  21.442	 128.295
 2568	  0.2336	 21.4675	  21.467	 128.445
 2571	  0.2324	 21.4937	  21.494	 128.595
 2574	  0.2328	 21.5187	  21.519	 128.745
 2577	  0.2340	 21.5437	  21.544	 128.895
 2580	  0.2336	 21.5688	  21.569	 129.045
 2583	  0.2324	 21.5938	  21.594	 129.195
 2586	  0.2328	 21.6187	  21.619	 129.345
 2589	  0.2336	 21.6437	  21.644	 129.495
 2592	  0.2336	 21.6687	  21.669	 129.645
 2595	  0.2332	 21.6938	  21.694	 129.795
 2598	  0.2332	 21.7188	  21.719	 129.945
 2601	  0.2336	 21.7437	  21.744	 130.095
 2604	  0.2348	 21.7700	  21.770	 130.245
 2607	  0.2340	 21.7950	  21.795	 130.395
 2610	  0.2344	 21.8200	  21.820	 130.545
 2613	  0.2348	 21.8450	  21.845	 130.695
 2616	  0.2344	 21.8700	  21.870	 130.845
 2619	  0.2340	 21.8950	  21.895	 130.995
 2622	  0.2344	 21.9200	  21.920	 131.145
 2625	  0.2348	 21.9450	  21.945	 131.295
 2628	  0.2344	 21.9712	  21.971	 131.445
 2631	  0.2356	 21.9963	  21.996	 131.595
 2634	  0.2352	 22.0212	  22.021	 131.745
 2637	  0.2360	 22.0462	  22.046	 131.895
 2640	  0.2352	 22.0712	  22.071	 132.045
 2643	  0.2352	 22.0962	  22.096	 132.195
 2646	  0.2352	 22.1213	  22.121	 132.345
 2649	  0.2352	 22.1462	  22.146	 132.495
 2652	  0.2356	 22.1712	  22.171	 132.645
 2655	  0.2352	 22.1962	  22.196	 132.795
 2658	  0.2364	 22.2212	  22.221	 132.945
 2661	  0.2360	 22.2475	  22.247	 133.095
 2664	  0.2356	 22.2725	  22.272	 133.245
 2667	  0.2364	 22.2975	  22.297	 133.395
 2670	  0.2356	 22.3225	  22.323	 133.545
 2673	  0.2356	 22.3475	  22.347	 133.695
 2676	  0.2360	 22.3725	  22.372	 133.845
 2679	  0.2356	 22.3975	  22.397	 133.995
 2682	  0.2356	 22.4225	  22.422	 134.145
 2685	  0.2356	 22.4475	  22.448	 134.295
 2688	  0.2368	 22.4725	  22.472	 134.445
 2691	  0.2372	 22.4975	  22.497	 134.595
 2694	  0.2372	 22.5225	  22.522	 134.745
 2697	  0.2368	 22.5475	  22.547	 134.895
 2700	  0.2372	 22.5737	  22.574	 135.045
 2703	  0.2368	 22.5987	  22.599	 135.195
 2706	  0.2368	 22.6237	  22.624	 135.345
 2709	  0.2368	 22.6488	  22.649	 135.495
 2712	  0.2376	 22.6737	  22.674	 135.645
 2715	  0.2376	 22.6987	  22.699	 135.795
 2718	  0.2384	 22.7237	  22.724	 135.945
 2721	  0.2384	 22.7487	  22.749	 136.095
 2724	  0.2376	 22.7738	  22.774	 136.245
 2727	  0.2372	 22.7987	  22.799	 136.395
 2730	  0.2372	 22.8237	  22.824	 136.545
 2733	  0.2384	 22.8487	  22.849	 136.695
 2736	  0.2388	 22.8737	  22.874	 136.845
 2739	  0.2396	 22.9000	  22.900	 136.995
 2742	  0.2396	 22.9250	  22.925	 137.145
 2745	  0.2380	 22.9500	  22.950	 137.295
 2748	  0.2384	 22.9750	  22.975	 137.445
 2751	  0.2388	 23.0000	  23.000	 137.595
 2754	  0.2388	 23.0250	  23.025	 137.745
 2757	  0.2392	 23.0500	  23.050	 137.895
 2760	  0.2384	 23.0750	  23.075	 138.045
 2763	  0.2388	 23.1000	  23.100	 138.195
 2766	  0.2392	 23.1237	  23.124	 138.345
 2769	  0.2388	 23.1488	  23.149	 138.495
 2772	  0.2392	 23.1737	  23.174	 138.645
 2775	  0.2396	 23.1987	  23.199	 138.795
 2778	  0.2392	 23.2237	  23.224	 138.945
 2781	  0.2392	 23.2487	  23.249	 139.095
 2784	  0.2400	 23.2738	  23.274	 139.245
 2787	  0.2400	 23.2987	  23.299	 139.395
 2790	  0.2404	 23.3250	  23.325	 139.545
 2793	  0.2404	 23.3500	  23.350	 139.695
 2796	  0.2408	 23.3737	  23.374	 139.845
 2799	  0.2404	 23.3988	  23.399	 139.995
 2802	  0.2404	 23.4237	  23.424	 140.145
 2805	  0.2412	 23.4487	  23.449	 140.295
 2808	  0.2400	 23.4737	  23.474	 140.445
 2811	  0.2404	 23.4987	  23.499	 140.595
 2814	  0.2404	 23.5238	  23.524	 140.745
 2817	  0.2408	 23.5487	  23.549	 140.895
 2820	  0.2404	 23.5750	  23.575	 141.045
 2823	  0.2404	 23.6000	  23.600	 141.195
 2826	  0.2404	 23.6237	  23.624	 141.345
 2829	  0.2412	 23.6488	  23.649	 141.495
 2832	  0.2408	 23.6737	  23.674	 141.645
 2835	  0.2416	 23.6987	  23.699	 141.795
 2838	  0.2404	 23.7237	  23.724	 141.945
 2841	  0.2408	 23.7487	  23.749	 142.095
 2844	  0.2412	 23.7738	  23.774	 142.245
 2847	  0.2412	 23.7987	  23.799	 142.395
 2850	  0.2416	 23.8237	  23.824	 142.545
 2853	  0.2416	 23.8500	  23.850	 142.695
 2856	  0.2412	 23.8737	  23.874	 142.845
 2859	  0.2416	 23.9000	  23.900	 142.995
 2862	  0.2420	 23.9237	  23.924	 143.145
 2865	  0.2424	 23.9487	  23.949	 143.295
 2868	  0.2420	 23.9750	  23.975	 143.445
 2871	  0.2416	 24.0000	  24.000	 143.595
 2874	  0.2416	 24.0250	  24.025	 143.745
 2877	  0.2424	 24.0500	  24.050	 143.895
 2880	  0.2420	 24.0750	  24.075	 144.045
 2883	  0.2420	 24.1000	  24.100	 144.195
 2886	  0.2424	 24.1250	  24.125	 144.345
 2889	  0.2420	 24.1500	  24.150	 144.495
 2892	  0.2420	 24.1750	  24.175	 144.645
 2895	  0.2424	 24.2000	  24.200	 144.795
 2898	  0.2428	 24.2250	  24.225	 144.945
 2901	  0.2424	 24.2487	  24.249	 145.095
 2904	  0.2428	 24.2750	  24.275	 145.245
 2907	  0.2428	 24.2987	  24.299	 145.395
 2910	  0.2428	 24.3237	  24.324	 145.545
 2913	  0.2432	 24.3487	  24.349	 145.695
 2916	  0.2432	 24.3737	  24.374	 145.845
 2919	  0.2432	 24.4000	  24.400	 145.995
 2922	  0.2436	 24.4250	  24.425	 146.145
 2925	  0.2440	 24.4500	  24.450	 146.295
 2928	  0.2436	 24.4737	  24.474	 146.445
 2931	  0.2444	 24.4987	  24.499	 146.595
 2934	  0.2432	 24.5238	  24.524	 146.745
 2937	  0.2436	 24.5487	  24.549	 146.895
 2940	  0.2436	 24.5750	  24.575	 147.045
 2943	  0.2440	 24.6000	  24.600	 147.195
 2946	  0.2436	 24.6237	  24.624	 147.345
 2949	  0.2436	 24.6500	  24.650	 147.495
 2952	  0.2436	 24.6750	  24.675	 147.645
 2955	  0.2436	 24.7000	  24.700	 147.795
 2958	  0.2440	 24.7250	  24.725	 147.945
 2961	  0.2440	 24.7500	  24.750	 148.095
 2964	  0.2448	 24.7750	  24.775	 148.245
 2967	  0.2440	 24.8000	  24.800	 148.395
 2970	  0.2440	 24.8250	  24.825	 148.545
 2973	  0.2448	 24.8500	  24.850	 148.695
 2976	  0.2452	 24.8750	  24.875	 148.845
 2979	  0.2444	 24.9000	  24.900	 148.995
 2982	  0.2444	 24.9250	  24.925	 149.145
 2985	  0.2448	 24.9513	  24.951	 149.295
 2988	  0.2448	 24.9762	  24.976	 149.445
 2991	  0.2456	 25.0012	  25.001	 149.595
 2994	  0.2448	 25.0262	  25.026	 149.745
 2997	  0.2448	 25.0512	  25.051	 149.895
 3000	  0.2448	 25.0763	  25.076	 150.045
 3003	  0.2452	 25.1012	  25.101	 150.195
 3006	  0.2452	 25.1262	  25.126	 150.345
 3009	  0.2452	 25.1512	  25.151	 150.495
 3012	  0.2456	 25.1762	  25.176	 150.645
 3015	  0.2456	 25.2013	  25.201	 150.795
 3018	  0.2460	 25.2275	  25.227	 150.945
 3021	  0.2456	 25.2525	  25.252	 151.095
 3024	  0.2456	 25.2775	  25.278	 151.245
 3027	  0.2456	 25.3025	  25.302	 151.395
 3030	  0.2456	 25.3275	  25.327	 151.545
 3033	  0.2460	 25.3525	  25.352	 151.695
 3036	  0.2460	 25.3775	  25.377	 151.845
 3039	  0.2460	 25.4025	  25.403	 151.995
 3042	  0.2464	 25.4275	  25.427	 152.145
 3045	  0.2460	 25.4537	  25.454	 152.295
 3048	  0.2456	 25.4788	  25.479	 152.445
 3051	  0.2460	 25.5037	  25.504	 152.595
 3054	  0.2464	 25.5287	  25.529	 152.745
 3057	  0.2464	 25.5537	  25.554	 152.895
 3060	  0.2464	 25.5787	  25.579	 153.045
 3063	  0.2460	 25.6038	  25.604	 153.195
 3066	  0.2460	 25.6287	  25.629	 153.345
 3069	  0.2464	 25.6550	  25.655	 153.495
 3072	  0.2464	 25.6800	  25.680	 153.645
 3075	  0.2460	 25.7050	  25.705	 153.795
 3078	  0.2468	 25.7300	  25.730	 153.945
 3081	  0.2464	 25.7550	  25.755	 154.095
 3084	  0.2464	 25.7800	  25.780	 154.245
 3087	  0.2468	 25.8050	  25.805	 154.395
 3090	  0.2464	 25.8312	  25.831	 154.545
 3093	  0.2464	 25.8562	  25.856	 154.695
 3096	  0.2472	 25.8812	  25.881	 154.845
 3099	  0.2468	 25.9062	  25.906	 154.995
 3102	  0.2464	 25.9312	  25.931	 155.145
 3105	  0.2468	 25.9562	  25.956	 155.295
 3108	  0.2468	 25.9825	  25.983	 155.445
 3111	  0.2464	 26.0075	  26.007	 155.595
 3114	  0.2468	 26.0325	  26.032	 155.745
 3117	  0.2476	 26.0575	  26.057	 155.895
 3120	  0.2468	 26.0825	  26.082	 156.045
 3123	  0.2460	 26.1075	  26.108	 156.195
 3126	  0.2468	 26.1325	  26.132	 156.345
 3129	  0.2468	 26.1587	  26.159	 156.495
 3132	  0.2476	 26.1838	  26.184	 156.645
 3135	  0.2476	 26.2087	  26.209	 156.795
 3138	  0.2472	 26.2337	  26.234	 156.945
 3141	  0.2476	 26.2587	  26.259	 157.095
 3144	  0.2472	 26.2837	  26.284	 157.245
 3147	  0.2480	 26.3088	  26.309	 157.395
 3150	  0.2468	 26.3337	  26.334	 157.545
 3153	  0.2464	 26.3600	  26.360	 157.695
 3156	  0.2472	 26.3850	  26.385	 157.845
 3159	  0.2472	 26.4100	  26.410	 157.995
 3162	  0.2468	 26.4350	  26.435	 158.145
 3165	  0.2468	 26.4600	  26.460	 158.295
 3168	  0.2460	 26.4850	  26.485	 158.445
 3171	  0.2464	 26.5100	  26.510	 158.595
 3174	  0.0856	 26.5350	  26.535	 158.745
 3177	  0.0016	 26.5600	  26.560	 158.895
 3180	  0.0016	 26.5850	  26.585	 159.045
 3183	  0.0024	 26.6100	  26.610	 159.195
 3186	  0.0016	 26.6362	  26.636	 159.345
 3189	  0.0012	 26.6612	  26.661	 159.495
 3192	  0.0016	 26.6862	  26.686	 159.645
 3195	  0.0016	 26.7113	  26.711	 159.795
 3198	  0.0016	 26.7362	  26.736	 159.945
 3201	  0.0016	 26.7612	  26.761	 160.095
 3204	  0.0016	 26.7862	  26.786	 160.245
 3207	  0.0020	 26.8112	  26.811	 160.395
 3210	  0.0024	 26.8363	  26.836	 160.545
 3211	  0.0020	 26.8450	  26.845	 160.595
ControlMode:	0
Rate:	 10.0000
(null)
4
step	1
0
5.000000
0.000000
1
1
0.500000
2
step	2
1
5.000000
0.000000
1
1
2.000000
3
step	3
5
2.000000
0.000000
1
0
30
4
step	4
8
0.000000
0.000000
0
0
0.000000
0
2