File: Ensaio de tração/Dados - Tração/P2-lacre guinner 02.txt
0
Diameter:	   5.00
   1.00
Area:	  19.6350
GaugeLength:	  50.00
2009-1-1
A3
001
DataNumber:	6462
index	Load(kN)	Defor(mm)	Stroke(mm)	Time(s)
    0	  0.0096	  0.0088	   0.009	   0.045
    6	  0.0096	  0.0587	   0.059	   0.345
   12	  0.0096	  0.1062	   0.106	   0.645
   18	  0.0104	  0.1562	   0.156	   0.945
   24	  0.0112	  0.2050	   0.205	   1.245
   30	  0.0104	  0.2550	   0.255	   1.545
   36	  0.0112	  0.3050	   0.305	   1.845
   42	  0.0112	  0.3550	   0.355	   2.145
   48	  0.0128	  0.4050	   0.405	   2.445
   54	  0.0120	  0.4550	   0.455	   2.745
   60	  0.0116	  0.5050	   0.505	   3.045
   66	  0.0120	  0.5550	   0.555	   3.345
   72	  0.0116	  0.6050	   0.605	   3.645
   78	  0.0116	  0.6550	   0.655	   3.945
   84	  0.0120	  0.7050	   0.705	   4.245
   90	  0.0132	  0.7550	   0.755	   4.545
   96	  0.0120	  0.8050	   0.805	   4.845
  102	  0.0124	  0.8525	   0.852	   5.145
  108	  0.0140	  0.9025	   0.902	   5.445
  114	  0.0136	  0.9525	   0.952	   5.745
  120	  0.0144	  1.0025	   1.002	   6.045
  126	  0.0148	  1.0525	   1.053	   6.345
  132	  0.0140	  1.1037	   1.104	   6.645
  138	  0.0140	  1.1537	   1.154	   6.945
  144	  0.0152	  1.2038	   1.204	   7.245
  150	  0.0152	  1.2525	   1.252	   7.545
  156	  0.0144	  1.3037	   1.304	   7.845
  162	  0.0148	  1.3537	   1.354	   8.145
  168	  0.0156	  1.4037	   1.404	   8.445
  174	  0.0160	  1.4538	   1.454	   8.745
  180	  0.0152	  1.5037	   1.504	   9.045
  186	  0.0156	  1.5550	   1.555	   9.345
  192	  0.0156	  1.6050	   1.605	   9.645
  198	  0.0160	  1.6550	   1.655	   9.945
  204	  0.0164	  1.7050	   1.705	  10.245
  210	  0.0168	  1.7550	   1.755	  10.545
  216	  0.0176	  1.8062	   1.806	  10.845
  222	  0.0176	  1.8562	   1.856	  11.145
  228	  0.0184	  1.9062	   1.906	  11.445
  234	  0.0180	  1.9562	   1.956	  11.745
  240	  0.0192	  2.0062	   2.006	  12.045
  246	  0.0204	  2.0562	   2.056	  12.345
  252	  0.0188	  2.1063	   2.106	  12.645
  258	  0.0196	  2.1575	   2.158	  12.945
  264	  0.0204	  2.2075	   2.207	  13.245
  270	  0.0208	  2.2575	   2.257	  13.545
  276	  0.0212	  2.3075	   2.307	  13.845
  282	  0.0220	  2.3575	   2.357	  14.145
  288	  0.0224	  2.4075	   2.408	  14.445
  294	  0.0232	  2.4575	   2.457	  14.745
  300	  0.0228	  2.5087	   2.509	  15.045
  306	  0.0236	  2.5587	   2.559	  15.345
  312	  0.0244	  2.6087	   2.609	  15.645
  318	  0.0248	  2.6588	   2.659	  15.945
  324	  0.0252	  2.7100	   2.710	  16.245
  330	  0.0256	  2.7600	   2.760	  16.545
  336	  0.0264	  2.8112	   2.811	  16.845
  342	  0.0268	  2.8612	   2.861	  17.145
  348	  0.0264	  2.9112	   2.911	  17.445
  354	  0.0280	  2.9612	   2.961	  17.745
  360	  0.0280	  3.0125	   3.013	  18.045
  366	  0.0288	  3.0625	   3.062	  18.345
  372	  0.0304	  3.1125	   3.112	  18.645
  378	  0.0304	  3.1625	   3.162	  18.945
  384	  0.0308	  3.2125	   3.212	  19.245
  390	  0.0312	  3.2625	   3.262	  19.545
  396	  0.0316	  3.3125	   3.312	  19.845
  402	  0.0328	  3.3625	   3.362	  20.145
  408	  0.0328	  3.4125	   3.412	  20.445
  414	  0.0340	  3.4625	   3.462	  20.745
  420	  0.0352	  3.5125	   3.512	  21.045
  426	  0.0360	  3.5625	   3.562	  21.345
  432	  0.0364	  3.6125	   3.612	  21.645
  438	  0.0372	  3.6625	   3.662	  21.945
  444	  0.0384	  3.7125	   3.712	  22.245
  450	  0.0388	  3.7625	   3.762	  22.545
  456	  0.0400	  3.8125	   3.812	  22.845
  462	  0.0416	  3.8612	   3.861	  23.145
  468	  0.0420	  3.9112	   3.911	  23.445
  474	  0.0432	  3.9612	   3.961	  23.745
  480	  0.0432	  4.0113	   4.011	  24.045
  486	  0.0444	  4.0612	   4.061	  24.345
  492	  0.0448	  4.1112	   4.111	  24.645
  498	  0.0460	  4.1600	   4.160	  24.945
  504	  0.0472	  4.2100	   4.210	  25.245
  510	  0.0480	  4.2600	   4.260	  25.545
  516	  0.0496	  4.3100	   4.310	  25.845
  522	  0.0504	  4.3600	   4.360	  26.145
  528	  0.0508	  4.4100	   4.410	  26.445
  534	  0.0528	  4.4600	   4.460	  26.745
  540	  0.0536	  4.5100	   4.510	  27.045
  546	  0.0540	  4.5600	   4.560	  27.345
  552	  0.0548	  4.6100	   4.610	  27.645
  558	  0.0556	  4.6600	   4.660	  27.945
  564	  0.0572	  4.7100	   4.710	  28.245
  570	  0.0580	  4.7600	   4.760	  28.545
  576	  0.0596	  4.8100	   4.810	  28.845
  582	  0.0604	  4.8600	   4.860	  29.145
  588	  0.0612	  4.9113	   4.911	  29.445
  594	  0.0628	  4.9612	   4.961	  29.745
  600	  0.0628	  5.0113	   5.011	  30.045
  606	  0.0648	  5.0612	   5.061	  30.345
  612	  0.0664	  5.1112	   5.111	  30.645
  618	  0.0672	  5.1613	   5.161	  30.945
  624	  0.0684	  5.2112	   5.211	  31.245
  630	  0.0692	  5.2613	   5.261	  31.545
  636	  0.0708	  5.3125	   5.312	  31.845
  642	  0.0716	  5.3625	   5.362	  32.145
  648	  0.0728	  5.4125	   5.412	  32.445
  654	  0.0740	  5.4625	   5.463	  32.745
  660	  0.0752	  5.5125	   5.512	  33.045
  666	  0.0772	  5.5625	   5.562	  33.345
  672	  0.0784	  5.6137	   5.614	  33.645
  678	  0.0792	  5.6637	   5.664	  33.945
  684	  0.0808	  5.7137	   5.714	  34.245
  690	  0.0816	  5.7638	   5.764	  34.545
  696	  0.0832	  5.8150	   5.815	  34.845
  702	  0.0840	  5.8650	   5.865	  35.145
  708	  0.0856	  5.9150	   5.915	  35.445
  714	  0.0856	  5.9650	   5.965	  35.745
  720	  0.0888	  6.0162	   6.016	  36.045
  726	  0.0900	  6.0662	   6.066	  36.345
  732	  0.0904	  6.1163	   6.116	  36.645
  738	  0.0920	  6.1662	   6.166	  36.945
  744	  0.0932	  6.2162	   6.216	  37.245
  750	  0.0956	  6.2662	   6.266	  37.545
  756	  0.0960	  6.3175	   6.317	  37.845
  762	  0.0980	  6.3675	   6.367	  38.145
  768	  0.0992	  6.4175	   6.418	  38.445
  774	  0.1004	  6.4675	   6.467	  38.745
  780	  0.1016	  6.5175	   6.517	  39.045
  786	  0.1032	  6.5687	   6.569	  39.345
  792	  0.1040	  6.6187	   6.619	  39.645
  798	  0.1056	  6.6687	   6.669	  39.945
  804	  0.1068	  6.7188	   6.719	  40.245
  810	  0.1076	  6.7687	   6.769	  40.545
  816	  0.1092	  6.8200	   6.820	  40.845
  822	  0.1108	  6.8700	   6.870	  41.145
  828	  0.1116	  6.9200	   6.920	  41.445
  834	  0.1136	  6.9700	   6.970	  41.745
  840	  0.1148	  7.0200	   7.020	  42.045
  846	  0.1160	  7.0700	   7.070	  42.345
  852	  0.1172	  7.1212	   7.121	  42.645
  858	  0.1180	  7.1712	   7.171	  42.945
  864	  0.1192	  7.2213	   7.221	  43.245
  870	  0.1220	  7.2712	   7.271	  43.545
  876	  0.1228	  7.3212	   7.321	  43.845
  882	  0.1236	  7.3712	   7.371	  44.145
  888	  0.1248	  7.4212	   7.421	  44.445
  894	  0.1260	  7.4713	   7.471	  44.745
  900	  0.1280	  7.5212	   7.521	  45.045
  906	  0.1292	  7.5712	   7.571	  45.345
  912	  0.1300	  7.6212	   7.621	  45.645
  918	  0.1320	  7.6712	   7.671	  45.945
  924	  0.1332	  7.7213	   7.721	  46.245
  930	  0.1344	  7.7712	   7.771	  46.545
  936	  0.1364	  7.8212	   7.821	  46.845
  942	  0.1368	  7.8712	   7.871	  47.145
  948	  0.1380	  7.9212	   7.921	  47.445
  954	  0.1396	  7.9713	   7.971	  47.745
  960	  0.1412	  8.0212	   8.021	  48.045
  966	  0.1428	  8.0712	   8.071	  48.345
  972	  0.1436	  8.1213	   8.121	  48.645
  978	  0.1460	  8.1712	   8.171	  48.945
  984	  0.1460	  8.2212	   8.221	  49.245
  990	  0.1476	  8.2712	   8.271	  49.545
  996	  0.1484	  8.3212	   8.321	  49.845
 1002	  0.1504	  8.3713	   8.371	  50.145
 1008	  0.1516	  8.4212	   8.421	  50.445
 1014	  0.1524	  8.4725	   8.472	  50.745
 1020	  0.1532	  8.5225	   8.523	  51.045
 1026	  0.1548	  8.5712	   8.571	  51.345
 1032	  0.1568	  8.6225	   8.622	  51.645
 1038	  0.1572	  8.6725	   8.672	  51.945
 1044	  0.1588	  8.7225	   8.722	  52.245
 1050	  0.1604	  8.7725	   8.773	  52.545
 1056	  0.1608	  8.8225	   8.823	  52.845
 1062	  0.1636	  8.8725	   8.872	  53.145
 1068	  0.1644	  8.9237	   8.924	  53.445
 1074	  0.1652	  8.9738	   8.974	  53.745
 1080	  0.1664	  9.0237	   9.024	  54.045
 1086	  0.1684	  9.0737	   9.074	  54.345
 1092	  0.1696	  9.1237	   9.124	  54.645
 1098	  0.1696	  9.1737	   9.174	  54.945
 1104	  0.1712	  9.2250	   9.225	  55.245
 1110	  0.1716	  9.2750	   9.275	  55.545
 1116	  0.1736	  9.3250	   9.325	  55.845
 1122	  0.1748	  9.3750	   9.375	  56.145
 1128	  0.1760	  9.4250	   9.425	  56.445
 1134	  0.1776	  9.4750	   9.475	  56.745
 1140	  0.1788	  9.5262	   9.526	  57.045
 1146	  0.1796	  9.5763	   9.576	  57.345
 1152	  0.1816	  9.6262	   9.626	  57.645
 1158	  0.1816	  9.6762	   9.676	  57.945
 1164	  0.1820	  9.7275	   9.727	  58.245
 1170	  0.1832	  9.7775	   9.778	  58.545
 1176	  0.1844	  9.8275	   9.827	  58.845
 1182	  0.1852	  9.8775	   9.877	  59.145
 1188	  0.1868	  9.9275	   9.927	  59.445
 1194	  0.1872	  9.9788	   9.979	  59.745
 1200	  0.1888	 10.0287	  10.029	  60.045
 1206	  0.1900	 10.0787	  10.079	  60.345
 1212	  0.1912	 10.1287	  10.129	  60.645
 1218	  0.1916	 10.1800	  10.180	  60.945
 1224	  0.1936	 10.2300	  10.230	  61.245
 1230	  0.1944	 10.2800	  10.280	  61.545
 1236	  0.1952	 10.3300	  10.330	  61.845
 1242	  0.1956	 10.3800	  10.380	  62.145
 1248	  0.1976	 10.4312	  10.431	  62.445
 1254	  0.1984	 10.4812	  10.481	  62.745
 1260	  0.1988	 10.5312	  10.531	  63.045
 1266	  0.2004	 10.5813	  10.581	  63.345
 1272	  0.2012	 10.6312	  10.631	  63.645
 1278	  0.2024	 10.6812	  10.681	  63.945
 1284	  0.2032	 10.7325	  10.733	  64.245
 1290	  0.2056	 10.7825	  10.782	  64.545
 1296	  0.2052	 10.8325	  10.832	  64.845
 1302	  0.2064	 10.8825	  10.882	  65.145
 1308	  0.2072	 10.9325	  10.932	  65.445
 1314	  0.2088	 10.9837	  10.984	  65.745
 1320	  0.2092	 11.0337	  11.034	  66.045
 1326	  0.2108	 11.0837	  11.084	  66.345
 1332	  0.2116	 11.1337	  11.134	  66.645
 1338	  0.2124	 11.1838	  11.184	  66.945
 1344	  0.2132	 11.2337	  11.234	  67.245
 1350	  0.2140	 11.2850	  11.285	  67.545
 1356	  0.2156	 11.3350	  11.335	  67.845
 1362	  0.2160	 11.3837	  11.384	  68.145
 1368	  0.2164	 11.4325	  11.432	  68.445
 1374	  0.2176	 11.4837	  11.484	  68.745
 1380	  0.2184	 11.5337	  11.534	  69.045
 1386	  0.2196	 11.5837	  11.584	  69.345
 1392	  0.2204	 11.6325	  11.632	  69.645
 1398	  0.2216	 11.6825	  11.682	  69.945
 1404	  0.2224	 11.7325	  11.733	  70.245
 1410	  0.2236	 11.7825	  11.782	  70.545
 1416	  0.2248	 11.8325	  11.832	  70.845
 1422	  0.2260	 11.8825	  11.882	  71.145
 1428	  0.2272	 11.9325	  11.932	  71.445
 1434	  0.2276	 11.9825	  11.983	  71.745
 1440	  0.2280	 12.0325	  12.032	  72.045
 1446	  0.2296	 12.0825	  12.082	  72.345
 1452	  0.2296	 12.1325	  12.132	  72.645
 1458	  0.2300	 12.1812	  12.181	  72.945
 1464	  0.2320	 12.2325	  12.233	  73.245
 1470	  0.2324	 12.2825	  12.282	  73.545
 1476	  0.2336	 12.3325	  12.332	  73.845
 1482	  0.2340	 12.3825	  12.382	  74.145
 1488	  0.2352	 12.4312	  12.431	  74.445
 1494	  0.2356	 12.4812	  12.481	  74.745
 1500	  0.2372	 12.5325	  12.532	  75.045
 1506	  0.2376	 12.5825	  12.582	  75.345
 1512	  0.2384	 12.6325	  12.632	  75.645
 1518	  0.2392	 12.6825	  12.682	  75.945
 1524	  0.2400	 12.7325	  12.733	  76.245
 1530	  0.2400	 12.7825	  12.782	  76.545
 1536	  0.2416	 12.8337	  12.834	  76.845
 1542	  0.2432	 12.8837	  12.884	  77.145
 1548	  0.2440	 12.9338	  12.934	  77.445
 1554	  0.2448	 12.9837	  12.984	  77.745
 1560	  0.2448	 13.0350	  13.035	  78.045
 1566	  0.2460	 13.0850	  13.085	  78.345
 1572	  0.2468	 13.1350	  13.135	  78.645
 1578	  0.2480	 13.1850	  13.185	  78.945
 1584	  0.2476	 13.2362	  13.236	  79.245
 1590	  0.2484	 13.2863	  13.286	  79.545
 1596	  0.2496	 13.3362	  13.336	  79.845
 1602	  0.2504	 13.3862	  13.386	  80.145
 1608	  0.2512	 13.4362	  13.436	  80.445
 1614	  0.2516	 13.4862	  13.486	  80.745
 1620	  0.2520	 13.5363	  13.536	  81.045
 1626	  0.2532	 13.5862	  13.586	  81.345
 1632	  0.2528	 13.6375	  13.637	  81.645
 1638	  0.2536	 13.6875	  13.688	  81.945
 1644	  0.2540	 13.7375	  13.737	  82.245
 1650	  0.2548	 13.7875	  13.787	  82.545
 1656	  0.2560	 13.8375	  13.837	  82.845
 1662	  0.2568	 13.8875	  13.887	  83.145
 1668	  0.2572	 13.9387	  13.939	  83.445
 1674	  0.2580	 13.9887	  13.989	  83.745
 1680	  0.2588	 14.0387	  14.039	  84.045
 1686	  0.2596	 14.0887	  14.089	  84.345
 1692	  0.2596	 14.1388	  14.139	  84.645
 1698	  0.2600	 14.1887	  14.189	  84.945
 1704	  0.2616	 14.2400	  14.240	  85.245
 1710	  0.2624	 14.2900	  14.290	  85.545
 1716	  0.2632	 14.3400	  14.340	  85.845
 1722	  0.2640	 14.3900	  14.390	  86.145
 1728	  0.2652	 14.4412	  14.441	  86.445
 1734	  0.2660	 14.4913	  14.491	  86.745
 1740	  0.2660	 14.5412	  14.541	  87.045
 1746	  0.2668	 14.5912	  14.591	  87.345
 1752	  0.2676	 14.6412	  14.641	  87.645
 1758	  0.2676	 14.6912	  14.691	  87.945
 1764	  0.2684	 14.7425	  14.742	  88.245
 1770	  0.2692	 14.7912	  14.791	  88.545
 1776	  0.2696	 14.8425	  14.842	  88.845
 1782	  0.2708	 14.8925	  14.892	  89.145
 1788	  0.2712	 14.9425	  14.943	  89.445
 1794	  0.2720	 14.9925	  14.992	  89.745
 1800	  0.2724	 15.0425	  15.042	  90.045
 1806	  0.2732	 15.0925	  15.092	  90.345
 1812	  0.2736	 15.1437	  15.144	  90.645
 1818	  0.2740	 15.1937	  15.194	  90.945
 1824	  0.2752	 15.2437	  15.244	  91.245
 1830	  0.2756	 15.2937	  15.294	  91.545
 1836	  0.2756	 15.3438	  15.344	  91.845
 1842	  0.2760	 15.3937	  15.394	  92.145
 1848	  0.2776	 15.4437	  15.444	  92.445
 1854	  0.2780	 15.4950	  15.495	  92.745
 1860	  0.2784	 15.5450	  15.545	  93.045
 1866	  0.2792	 15.5938	  15.594	  93.345
 1872	  0.2796	 15.6437	  15.644	  93.645
 1878	  0.2804	 15.6937	  15.694	  93.945
 1884	  0.2804	 15.7437	  15.744	  94.245
 1890	  0.2816	 15.7937	  15.794	  94.545
 1896	  0.2816	 15.8438	  15.844	  94.845
 1902	  0.2820	 15.8925	  15.892	  95.145
 1908	  0.2832	 15.9437	  15.944	  95.445
 1914	  0.2832	 15.9937	  15.994	  95.745
 1920	  0.2852	 16.0437	  16.044	  96.045
 1926	  0.2852	 16.0938	  16.094	  96.345
 1932	  0.2852	 16.1425	  16.142	  96.645
 1938	  0.2860	 16.1925	  16.192	  96.945
 1944	  0.2868	 16.2437	  16.244	  97.245
 1950	  0.2876	 16.2937	  16.294	  97.545
 1956	  0.2872	 16.3425	  16.342	  97.845
 1962	  0.2880	 16.3937	  16.394	  98.145
 1968	  0.2888	 16.4438	  16.444	  98.445
 1974	  0.2892	 16.4937	  16.494	  98.745
 1980	  0.2904	 16.5437	  16.544	  99.045
 1986	  0.2908	 16.5925	  16.592	  99.345
 1992	  0.2908	 21.7400	  21.740	  99.645
 1998	  0.2920	 21.7913	  21.791	  99.945
 2004	  0.2924	 21.8412	  21.841	 100.245
 2010	  0.2928	 21.8912	  21.891	 100.545
 2016	  0.2936	 21.9412	  21.941	 100.845
 2022	  0.2932	 21.9900	  21.990	 101.145
 2028	  0.2948	 22.0413	  22.041	 101.445
 2034	  0.2948	 22.0912	  22.091	 101.745
 2040	  0.2956	 22.1412	  22.141	 102.045
 2046	  0.2964	 22.1912	  22.191	 102.345
 2052	  0.2960	 22.2412	  22.241	 102.645
 2058	  0.2964	 22.2913	  22.291	 102.945
 2064	  0.2972	 22.3412	  22.341	 103.245
 2070	  0.2976	 22.3912	  22.391	 103.545
 2076	  0.2980	 22.4412	  22.441	 103.845
 2082	  0.2992	 22.4925	  22.493	 104.145
 2088	  0.2996	 22.5425	  22.542	 104.445
 2094	  0.2992	 22.5925	  22.592	 104.745
 2100	  0.3016	 22.6425	  22.642	 105.045
 2106	  0.3004	 22.6925	  22.692	 105.345
 2112	  0.3012	 22.7425	  22.743	 105.645
 2118	  0.3024	 22.7925	  22.792	 105.945
 2124	  0.3020	 22.8425	  22.842	 106.245
 2130	  0.3028	 22.8925	  22.892	 106.545
 2136	  0.3032	 22.9425	  22.942	 106.845
 2142	  0.3028	 22.9937	  22.994	 107.145
 2148	  0.3044	 23.0437	  23.044	 107.445
 2154	  0.3044	 23.0938	  23.094	 107.745
 2160	  0.3048	 23.1437	  23.144	 108.045
 2166	  0.3056	 23.1950	  23.195	 108.345
 2172	  0.3064	 23.2450	  23.245	 108.645
 2178	  0.3072	 23.2950	  23.295	 108.945
 2184	  0.3076	 23.3450	  23.345	 109.245
 2190	  0.3080	 23.3962	  23.396	 109.545
 2196	  0.3088	 23.4462	  23.446	 109.845
 2202	  0.3084	 23.4963	  23.496	 110.145
 2208	  0.3092	 23.5462	  23.546	 110.445
 2214	  0.3100	 23.5975	  23.597	 110.745
 2220	  0.3100	 23.6475	  23.647	 111.045
 2226	  0.3108	 23.6975	  23.698	 111.345
 2232	  0.3108	 23.7487	  23.749	 111.645
 2238	  0.3124	 23.7975	  23.797	 111.945
 2244	  0.3120	 23.8487	  23.849	 112.245
 2250	  0.3120	 23.8988	  23.899	 112.545
 2256	  0.3120	 23.9487	  23.949	 112.845
 2262	  0.3136	 24.0000	  24.000	 113.145
 2268	  0.3144	 24.0500	  24.050	 113.445
 2274	  0.3148	 24.1000	  24.100	 113.745
 2280	  0.3152	 24.1500	  24.150	 114.045
 2286	  0.3152	 24.2000	  24.200	 114.345
 2292	  0.3156	 24.2512	  24.251	 114.645
 2298	  0.3164	 24.3012	  24.301	 114.945
 2304	  0.3176	 24.3512	  24.351	 115.245
 2310	  0.3168	 24.4012	  24.401	 115.545
 2316	  0.3180	 24.4525	  24.452	 115.845
 2322	  0.3184	 24.5025	  24.502	 116.145
 2328	  0.3192	 24.5525	  24.552	 116.445
 2334	  0.3192	 24.6025	  24.602	 116.745
 2340	  0.3200	 24.6525	  24.653	 117.045
 2346	  0.3200	 24.7037	  24.704	 117.345
 2352	  0.3208	 24.7537	  24.754	 117.645
 2358	  0.3208	 24.8037	  24.804	 117.945
 2364	  0.3220	 24.8538	  24.854	 118.245
 2370	  0.3224	 24.9037	  24.904	 118.545
 2376	  0.3228	 24.9525	  24.952	 118.845
 2382	  0.3228	 25.0025	  25.002	 119.145
 2388	  0.3228	 25.0525	  25.052	 119.445
 2394	  0.3236	 25.1025	  25.102	 119.745
 2400	  0.3240	 25.1525	  25.153	 120.045
 2406	  0.3240	 25.2025	  25.202	 120.345
 2412	  0.3252	 25.2525	  25.252	 120.645
 2418	  0.3256	 25.3025	  25.302	 120.945
 2424	  0.3252	 25.3525	  25.352	 121.245
 2430	  0.3264	 25.4025	  25.403	 121.545
 2436	  0.3272	 25.4525	  25.452	 121.845
 2442	  0.3272	 25.5025	  25.502	 122.145
 2448	  0.3268	 25.5537	  25.554	 122.445
 2454	  0.3276	 25.6038	  25.604	 122.745
 2460	  0.3276	 25.6537	  25.654	 123.045
 2466	  0.3284	 25.7037	  25.704	 123.345
 2472	  0.3280	 25.7537	  25.754	 123.645
 2478	  0.3284	 25.8037	  25.804	 123.945
 2484	  0.3284	 25.8538	  25.854	 124.245
 2490	  0.3296	 25.9037	  25.904	 124.545
 2496	  0.3292	 25.9537	  25.954	 124.845
 2502	  0.3304	 26.0037	  26.004	 125.145
 2508	  0.3312	 26.0537	  26.054	 125.445
 2514	  0.3304	 26.1038	  26.104	 125.745
 2520	  0.3308	 26.1537	  26.154	 126.045
 2526	  0.3312	 26.2037	  26.204	 126.345
 2532	  0.3316	 26.2537	  26.254	 126.645
 2538	  0.3316	 26.3037	  26.304	 126.945
 2544	  0.3320	 26.3538	  26.354	 127.245
 2550	  0.3332	 26.4037	  26.404	 127.545
 2556	  0.3332	 26.4537	  26.454	 127.845
 2562	  0.3336	 26.5037	  26.504	 128.145
 2568	  0.3340	 26.5537	  26.554	 128.445
 2574	  0.3344	 26.6038	  26.604	 128.745
 2580	  0.3348	 26.6537	  26.654	 129.045
 2586	  0.3356	 26.7037	  26.704	 129.345
 2592	  0.3348	 26.7550	  26.755	 129.645
 2598	  0.3368	 26.8050	  26.805	 129.945
 2604	  0.3364	 26.8550	  26.855	 130.245
 2610	  0.3376	 26.9050	  26.905	 130.545
 2616	  0.3372	 26.9550	  26.955	 130.845
 2622	  0.3372	 27.0050	  27.005	 131.145
 2628	  0.3376	 27.0550	  27.055	 131.445
 2634	  0.3384	 27.1050	  27.105	 131.745
 2640	  0.3388	 27.1550	  27.155	 132.045
 2646	  0.3396	 27.2050	  27.205	 132.345
 2652	  0.3400	 27.2550	  27.255	 132.645
 2658	  0.3400	 27.3050	  27.305	 132.945
 2664	  0.3400	 27.3550	  27.355	 133.245
 2670	  0.3396	 27.4062	  27.406	 133.545
 2676	  0.3404	 27.4562	  27.456	 133.845
 2682	  0.3420	 27.5062	  27.506	 134.145
 2688	  0.3420	 27.5562	  27.556	 134.445
 2694	  0.3424	 27.6075	  27.608	 134.745
 2700	  0.3428	 27.6575	  27.657	 135.045
 2706	  0.3428	 27.7075	  27.707	 135.345
 2712	  0.3432	 27.7587	  27.759	 135.645
 2718	  0.3444	 27.8088	  27.809	 135.945
 2724	  0.3448	 27.8600	  27.860	 136.245
 2730	  0.3448	 27.9100	  27.910	 136.545
 2736	  0.3452	 27.9600	  27.960	 136.845
 2742	  0.3448	 28.0112	  28.011	 137.145
 2748	  0.3452	 28.0612	  28.061	 137.445
 2754	  0.3460	 28.1112	  28.111	 137.745
 2760	  0.3456	 28.1625	  28.162	 138.045
 2766	  0.3464	 28.2125	  28.212	 138.345
 2772	  0.3464	 28.2625	  28.262	 138.645
 2778	  0.3468	 28.3125	  28.312	 138.945
 2784	  0.3472	 28.3625	  28.362	 139.245
 2790	  0.3484	 28.4125	  28.412	 139.545
 2796	  0.3484	 28.4637	  28.464	 139.845
 2802	  0.3480	 28.5138	  28.514	 140.145
 2808	  0.3488	 28.5637	  28.564	 140.445
 2814	  0.3488	 28.6137	  28.614	 140.745
 2820	  0.3492	 28.6637	  28.664	 141.045
 2826	  0.3500	 28.7137	  28.714	 141.345
 2832	  0.3492	 28.7638	  28.764	 141.645
 2838	  0.3500	 28.8137	  28.814	 141.945
 2844	  0.3504	 28.8650	  28.865	 142.245
 2850	  0.3500	 28.9150	  28.915	 142.545
 2856	  0.3504	 28.9650	  28.965	 142.845
 2862	  0.3504	 29.0150	  29.015	 143.145
 2868	  0.3508	 29.0650	  29.065	 143.445
 2874	  0.3516	 29.1150	  29.115	 143.745
 2880	  0.3516	 29.1650	  29.165	 144.045
 2886	  0.3524	 29.2150	  29.215	 144.345
 2892	  0.3520	 29.2650	  29.265	 144.645
 2898	  0.3532	 29.3150	  29.315	 144.945
 2904	  0.3532	 29.3650	  29.365	 145.245
 2910	  0.3540	 29.4150	  29.415	 145.545
 2916	  0.3548	 29.4637	  29.464	 145.845
 2922	  0.3536	 29.5138	  29.514	 146.145
 2928	  0.3548	 29.5650	  29.565	 146.445
 2934	  0.3552	 29.6137	  29.614	 146.745
 2940	  0.3556	 29.6637	  29.664	 147.045
 2946	  0.3564	 29.7150	  29.715	 147.345
 2952	  0.3568	 29.7638	  29.764	 147.645
 2958	  0.3576	 29.8137	  29.814	 147.945
 2964	  0.3576	 29.8650	  29.865	 148.245
 2970	  0.3584	 29.9137	  29.914	 148.545
 2976	  0.3584	 29.9650	  29.965	 148.845
 2982	  0.3584	 30.0138	  30.014	 149.145
 2988	  0.3588	 30.0637	  30.064	 149.445
 2994	  0.3592	 30.1137	  30.114	 149.745
 3000	  0.3588	 30.1637	  30.164	 150.045
 3006	  0.3592	 30.2137	  30.214	 150.345
 3012	  0.3600	 30.2638	  30.264	 150.645
 3018	  0.3592	 30.3137	  30.314	 150.945
 3024	  0.3596	 30.3637	  30.364	 151.245
 3030	  0.3600	 30.4137	  30.414	 151.545
 3036	  0.3600	 30.4637	  30.464	 151.845
 3042	  0.3608	 30.5138	  30.514	 152.145
 3048	  0.3612	 30.5637	  30.564	 152.445
 3054	  0.3608	 30.6137	  30.614	 152.745
 3060	  0.3612	 30.6650	  30.665	 153.045
 3066	  0.3624	 30.7150	  30.715	 153.345
 3072	  0.3624	 30.7650	  30.765	 153.645
 3078	  0.3628	 30.8150	  30.815	 153.945
 3084	  0.3624	 30.8650	  30.865	 154.245
 3090	  0.3636	 30.9150	  30.915	 154.545
 3096	  0.3640	 30.9650	  30.965	 154.845
 3102	  0.3640	 31.0150	  31.015	 155.145
 3108	  0.3640	 31.0662	  31.066	 155.445
 3114	  0.3656	 31.1162	  31.116	 155.745
 3120	  0.3648	 31.1663	  31.166	 156.045
 3126	  0.3652	 31.2162	  31.216	 156.345
 3132	  0.3652	 31.2662	  31.266	 156.645
 3138	  0.3660	 31.3162	  31.316	 156.945
 3144	  0.3668	 31.3662	  31.366	 157.245
 3150	  0.3664	 31.4150	  31.415	 157.545
 3156	  0.3668	 31.4662	  31.466	 157.845
 3162	  0.3660	 31.5162	  31.516	 158.145
 3168	  0.3664	 31.5662	  31.566	 158.445
 3174	  0.3676	 31.6162	  31.616	 158.745
 3180	  0.3676	 31.6675	  31.667	 159.045
 3186	  0.3680	 31.7175	  31.717	 159.345
 3192	  0.3684	 31.7675	  31.767	 159.645
 3198	  0.3688	 31.8187	  31.819	 159.945
 3204	  0.3692	 31.8687	  31.869	 160.245
 3210	  0.3696	 31.9187	  31.919	 160.545
 3216	  0.3696	 31.9700	  31.970	 160.845
 3222	  0.3700	 32.0200	  32.020	 161.145
 3228	  0.3696	 32.0700	  32.070	 161.445
 3234	  0.3704	 32.1200	  32.120	 161.745
 3240	  0.3704	 32.1700	  32.170	 162.045
 3246	  0.3708	 32.2212	  32.221	 162.345
 3252	  0.3712	 32.2712	  32.271	 162.645
 3258	  0.3712	 32.3213	  32.321	 162.945
 3264	  0.3712	 32.3713	  32.371	 163.245
 3270	  0.3724	 32.4212	  32.421	 163.545
 3276	  0.3728	 32.4712	  32.471	 163.845
 3282	  0.3732	 32.5212	  32.521	 164.145
 3288	  0.3728	 32.5725	  32.572	 164.445
 3294	  0.3728	 32.6225	  32.622	 164.745
 3300	  0.3736	 32.6725	  32.673	 165.045
 3306	  0.3736	 32.7225	  32.722	 165.345
 3312	  0.3736	 32.7725	  32.772	 165.645
 3318	  0.3748	 32.8225	  32.822	 165.945
 3324	  0.3752	 32.8737	  32.874	 166.245
 3330	  0.3748	 32.9237	  32.924	 166.545
 3336	  0.3748	 32.9738	  32.974	 166.845
 3342	  0.3748	 33.0238	  33.024	 167.145
 3348	  0.3752	 33.0737	  33.074	 167.445
 3354	  0.3764	 33.1237	  33.124	 167.745
 3360	  0.3768	 33.1750	  33.175	 168.045
 3366	  0.3768	 33.2238	  33.224	 168.345
 3372	  0.3764	 33.2750	  33.275	 168.645
 3378	  0.3768	 33.3250	  33.325	 168.945
 3384	  0.3772	 33.3750	  33.375	 169.245
 3390	  0.3776	 33.4250	  33.425	 169.545
 3396	  0.3788	 33.4750	  33.475	 169.845
 3402	  0.3776	 33.5250	  33.525	 170.145
 3408	  0.3780	 33.5750	  33.575	 170.445
 3414	  0.3776	 33.6250	  33.625	 170.745
 3420	  0.3780	 33.6750	  33.675	 171.045
 3426	  0.3792	 33.7250	  33.725	 171.345
 3432	  0.3792	 33.7750	  33.775	 171.645
 3438	  0.3788	 33.8250	  33.825	 171.945
 3444	  0.3796	 33.8762	  33.876	 172.245
 3450	  0.3804	 33.9250	  33.925	 172.545
 3456	  0.3800	 33.9762	  33.976	 172.845
 3462	  0.3808	 34.0262	  34.026	 173.145
 3468	  0.3796	 34.0762	  34.076	 173.445
 3474	  0.3808	 34.1262	  34.126	 173.745
 3480	  0.3812	 34.1763	  34.176	 174.045
 3486	  0.3816	 34.2262	  34.226	 174.345
 3492	  0.3816	 34.2762	  34.276	 174.645
 3498	  0.3816	 34.3262	  34.326	 174.945
 3504	  0.3820	 34.3762	  34.376	 175.245
 3510	  0.3820	 34.4275	  34.427	 175.545
 3516	  0.3820	 34.4762	  34.476	 175.845
 3522	  0.3828	 34.5275	  34.528	 176.145
 3528	  0.3824	 34.5775	  34.577	 176.445
 3534	  0.3828	 34.6275	  34.627	 176.745
 3540	  0.3832	 34.6775	  34.677	 177.045
 3546	  0.3832	 34.7275	  34.728	 177.345
 3552	  0.3836	 34.7775	  34.778	 177.645
 3558	  0.3832	 34.8275	  34.827	 177.945
 3564	  0.3844	 34.8787	  34.879	 178.245
 3570	  0.3844	 34.9275	  34.927	 178.545
 3576	  0.3856	 34.9787	  34.979	 178.845
 3582	  0.3860	 35.0287	  35.029	 179.145
 3588	  0.3856	 35.0762	  35.076	 179.445
 3594	  0.3864	 35.1262	  35.126	 179.745
 3600	  0.3852	 35.1763	  35.176	 180.045
 3606	  0.3860	 35.2262	  35.226	 180.345
 3612	  0.3860	 35.2762	  35.276	 180.645
 3618	  0.3864	 35.3275	  35.327	 180.945
 3624	  0.3868	 35.3775	  35.377	 181.245
 3630	  0.3872	 35.4275	  35.427	 181.545
 3636	  0.3864	 35.4775	  35.478	 181.845
 3642	  0.3876	 35.5275	  35.528	 182.145
 3648	  0.3876	 35.5775	  35.577	 182.445
 3654	  0.3868	 35.6287	  35.629	 182.745
 3660	  0.3880	 35.6787	  35.679	 183.045
 3666	  0.3884	 35.7287	  35.729	 183.345
 3672	  0.3892	 35.7787	  35.779	 183.645
 3678	  0.3892	 35.8300	  35.830	 183.945
 3684	  0.3888	 35.8800	  35.880	 184.245
 3690	  0.3892	 35.9300	  35.930	 184.545
 3696	  0.3896	 35.9813	  35.981	 184.845
 3702	  0.3900	 36.0300	  36.030	 185.145
 3708	  0.3904	 36.0812	  36.081	 185.445
 3714	  0.3912	 36.1312	  36.131	 185.745
 3720	  0.3912	 36.1812	  36.181	 186.045
 3726	  0.3908	 36.2325	  36.232	 186.345
 3732	  0.3916	 36.2812	  36.281	 186.645
 3738	  0.3904	 36.3325	  36.333	 186.945
 3744	  0.3908	 36.3825	  36.382	 187.245
 3750	  0.3912	 36.4325	  36.432	 187.545
 3756	  0.3912	 36.4825	  36.482	 187.845
 3762	  0.3920	 36.5337	  36.534	 188.145
 3768	  0.3928	 36.5825	  36.583	 188.445
 3774	  0.3924	 36.6338	  36.634	 188.745
 3780	  0.3924	 36.6838	  36.684	 189.045
 3786	  0.3928	 36.7337	  36.734	 189.345
 3792	  0.3932	 36.7837	  36.784	 189.645
 3798	  0.3932	 36.8337	  36.834	 189.945
 3804	  0.3940	 36.8838	  36.884	 190.245
 3810	  0.3944	 36.9350	  36.935	 190.545
 3816	  0.3948	 36.9850	  36.985	 190.845
 3822	  0.3940	 37.0350	  37.035	 191.145
 3828	  0.3952	 37.0850	  37.085	 191.445
 3834	  0.3952	 37.1350	  37.135	 191.745
 3840	  0.3948	 37.1850	  37.185	 192.045
 3846	  0.3944	 37.2350	  37.235	 192.345
 3852	  0.3956	 37.2850	  37.285	 192.645
 3858	  0.3948	 37.3350	  37.335	 192.945
 3864	  0.3948	 37.3850	  37.385	 193.245
 3870	  0.3952	 37.4350	  37.435	 193.545
 3876	  0.3964	 37.4850	  37.485	 193.845
 3882	  0.3968	 37.5350	  37.535	 194.145
 3888	  0.3956	 37.5850	  37.585	 194.445
 3894	  0.3964	 37.6350	  37.635	 194.745
 3900	  0.3972	 37.6850	  37.685	 195.045
 3906	  0.3968	 37.7362	  37.736	 195.345
 3912	  0.3968	 37.7862	  37.786	 195.645
 3918	  0.3972	 37.8363	  37.836	 195.945
 3924	  0.3972	 37.8862	  37.886	 196.245
 3930	  0.3976	 37.9362	  37.936	 196.545
 3936	  0.3980	 37.9875	  37.987	 196.845
 3942	  0.3976	 38.0362	  38.036	 197.145
 3948	  0.3980	 38.0863	  38.086	 197.445
 3954	  0.3988	 38.1362	  38.136	 197.745
 3960	  0.3984	 38.1862	  38.186	 198.045
 3966	  0.3992	 38.2362	  38.236	 198.345
 3972	  0.3996	 38.2862	  38.286	 198.645
 3978	  0.3988	 38.3363	  38.336	 198.945
 3984	  0.3996	 38.3862	  38.386	 199.245
 3990	  0.4004	 38.4362	  38.436	 199.545
 3996	  0.4004	 38.4862	  38.486	 199.845
 4002	  0.4012	 38.5350	  38.535	 200.145
 4008	  0.4004	 38.5850	  38.585	 200.445
 4014	  0.4004	 38.6350	  38.635	 200.745
 4020	  0.4008	 38.6850	  38.685	 201.045
 4026	  0.4004	 38.7350	  38.735	 201.345
 4032	  0.4012	 38.7850	  38.785	 201.645
 4038	  0.4008	 38.8350	  38.835	 201.945
 4044	  0.4012	 38.8850	  38.885	 202.245
 4050	  0.4008	 38.9350	  38.935	 202.545
 4056	  0.4016	 38.9850	  38.985	 202.845
 4062	  0.4016	 39.0350	  39.035	 203.145
 4068	  0.4024	 39.0850	  39.085	 203.445
 4074	  0.4024	 39.1362	  39.136	 203.745
 4080	  0.4024	 39.1850	  39.185	 204.045
 4086	  0.4028	 39.2362	  39.236	 204.345
 4092	  0.4028	 39.2862	  39.286	 204.645
 4098	  0.4028	 39.3363	  39.336	 204.945
 4104	  0.4036	 39.3862	  39.386	 205.245
 4110	  0.4036	 39.4362	  39.436	 205.545
 4116	  0.4040	 39.4862	  39.486	 205.845
 4122	  0.4044	 39.5362	  39.536	 206.145
 4128	  0.4036	 39.5875	  39.587	 206.445
 4134	  0.4036	 39.6375	  39.638	 206.745
 4140	  0.4044	 39.6875	  39.688	 207.045
 4146	  0.4048	 39.7375	  39.737	 207.345
 4152	  0.4040	 39.7875	  39.787	 207.645
 4158	  0.4044	 39.8375	  39.837	 207.945
 4164	  0.4056	 39.8887	  39.889	 208.245
 4170	  0.4048	 39.9387	  39.939	 208.545
 4176	  0.4056	 39.9888	  39.989	 208.845
 4182	  0.4064	 40.0387	  40.039	 209.145
 4188	  0.4068	 40.0887	  40.089	 209.445
 4194	  0.4068	 40.1387	  40.139	 209.745
 4200	  0.4060	 40.1887	  40.189	 210.045
 4206	  0.4072	 40.2400	  40.240	 210.345
 4212	  0.4068	 40.2900	  40.290	 210.645
 4218	  0.4072	 40.3400	  40.340	 210.945
 4224	  0.4076	 40.3913	  40.391	 211.245
 4230	  0.4072	 40.4400	  40.440	 211.545
 4236	  0.4076	 40.4912	  40.491	 211.845
 4242	  0.4072	 40.5412	  40.541	 212.145
 4248	  0.4072	 40.5912	  40.591	 212.445
 4254	  0.4072	 40.6413	  40.641	 212.745
 4260	  0.4080	 40.6912	  40.691	 213.045
 4266	  0.4072	 40.7412	  40.741	 213.345
 4272	  0.4072	 40.7925	  40.792	 213.645
 4278	  0.4076	 40.8425	  40.842	 213.945
 4284	  0.4080	 40.8925	  40.892	 214.245
 4290	  0.4092	 40.9425	  40.942	 214.545
 4296	  0.4088	 40.9925	  40.993	 214.845
 4302	  0.4084	 41.0425	  41.042	 215.145
 4308	  0.4088	 41.0925	  41.092	 215.445
 4314	  0.4092	 41.1425	  41.142	 215.745
 4320	  0.4088	 41.1937	  41.194	 216.045
 4326	  0.4088	 41.2437	  41.244	 216.345
 4332	  0.4096	 41.2938	  41.294	 216.645
 4338	  0.4092	 41.3438	  41.344	 216.945
 4344	  0.4096	 41.3937	  41.394	 217.245
 4350	  0.4088	 41.4437	  41.444	 217.545
 4356	  0.4088	 41.4937	  41.494	 217.845
 4362	  0.4096	 41.5438	  41.544	 218.145
 4368	  0.4092	 41.5938	  41.594	 218.445
 4374	  0.4092	 41.6450	  41.645	 218.745
 4380	  0.4108	 41.6950	  41.695	 219.045
 4386	  0.4120	 41.7450	  41.745	 219.345
 4392	  0.4120	 41.7950	  41.795	 219.645
 4398	  0.4116	 41.8438	  41.844	 219.945
 4404	  0.4116	 41.8950	  41.895	 220.245
 4410	  0.4120	 41.9450	  41.945	 220.545
 4416	  0.4120	 41.9950	  41.995	 220.845
 4422	  0.4116	 42.0438	  42.044	 221.145
 4428	  0.4120	 42.0950	  42.095	 221.445
 4434	  0.4124	 42.1450	  42.145	 221.745
 4440	  0.4124	 42.1950	  42.195	 222.045
 4446	  0.4116	 42.2450	  42.245	 222.345
 4452	  0.4120	 42.2950	  42.295	 222.645
 4458	  0.4120	 42.3450	  42.345	 222.945
 4464	  0.4120	 42.3950	  42.395	 223.245
 4470	  0.4132	 42.4450	  42.445	 223.545
 4476	  0.4124	 42.4950	  42.495	 223.845
 4482	  0.4132	 42.5438	  42.544	 224.145
 4488	  0.4128	 42.5950	  42.595	 224.445
 4494	  0.4140	 42.6437	  42.644	 224.745
 4500	  0.4132	 42.6937	  42.694	 225.045
 4506	  0.4140	 42.7437	  42.744	 225.345
 4512	  0.4136	 42.7938	  42.794	 225.645
 4518	  0.4144	 42.8438	  42.844	 225.945
 4524	  0.4144	 42.8937	  42.894	 226.245
 4530	  0.4152	 42.9437	  42.944	 226.545
 4536	  0.4156	 42.9937	  42.994	 226.845
 4542	  0.4152	 43.0438	  43.044	 227.145
 4548	  0.4148	 43.0938	  43.094	 227.445
 4554	  0.4152	 43.1437	  43.144	 227.745
 4560	  0.4160	 43.1937	  43.194	 228.045
 4566	  0.4156	 43.2437	  43.244	 228.345
 4572	  0.4164	 43.2950	  43.295	 228.645
 4578	  0.4152	 43.3450	  43.345	 228.945
 4584	  0.4164	 43.3950	  43.395	 229.245
 4590	  0.4164	 43.4437	  43.444	 229.545
 4596	  0.4164	 43.4925	  43.493	 229.845
 4602	  0.4164	 43.5438	  43.544	 230.145
 4608	  0.4168	 43.5938	  43.594	 230.445
 4614	  0.4164	 43.6437	  43.644	 230.745
 4620	  0.4168	 43.6937	  43.694	 231.045
 4626	  0.4176	 43.7437	  43.744	 231.345
 4632	  0.4176	 43.7938	  43.794	 231.645
 4638	  0.4176	 43.8450	  43.845	 231.945
 4644	  0.4176	 43.8950	  43.895	 232.245
 4650	  0.4172	 43.9437	  43.944	 232.545
 4656	  0.4176	 43.9950	  43.995	 232.845
 4662	  0.4172	 44.0450	  44.045	 233.145
 4668	  0.4180	 44.0950	  44.095	 233.445
 4674	  0.4184	 44.1450	  44.145	 233.745
 4680	  0.4192	 44.1963	  44.196	 234.045
 4686	  0.4188	 44.2463	  44.246	 234.345
 4692	  0.4192	 44.2962	  44.296	 234.645
 4698	  0.4188	 44.3462	  44.346	 234.945
 4704	  0.4192	 44.3975	  44.397	 235.245
 4710	  0.4196	 44.4475	  44.447	 235.545
 4716	  0.4196	 44.4975	  44.497	 235.845
 4722	  0.4184	 44.5487	  44.549	 236.145
 4728	  0.4196	 44.5987	  44.599	 236.445
 4734	  0.4196	 44.6488	  44.649	 236.745
 4740	  0.4200	 44.7000	  44.700	 237.045
 4746	  0.4200	 44.7500	  44.750	 237.345
 4752	  0.4212	 44.8000	  44.800	 237.645
 4758	  0.4204	 44.8500	  44.850	 237.945
 4764	  0.4212	 44.9000	  44.900	 238.245
 4770	  0.4208	 44.9500	  44.950	 238.545
 4776	  0.4216	 45.0012	  45.001	 238.845
 4782	  0.4212	 45.0513	  45.051	 239.145
 4788	  0.4212	 45.1012	  45.101	 239.445
 4794	  0.4216	 45.1512	  45.151	 239.745
 4800	  0.4224	 45.2012	  45.201	 240.045
 4806	  0.4220	 45.2525	  45.252	 240.345
 4812	  0.4224	 45.3025	  45.302	 240.645
 4818	  0.4224	 45.3525	  45.352	 240.945
 4824	  0.4224	 45.4025	  45.403	 241.245
 4830	  0.4224	 45.4525	  45.452	 241.545
 4836	  0.4232	 45.5025	  45.502	 241.845
 4842	  0.4232	 45.5537	  45.554	 242.145
 4848	  0.4232	 45.6037	  45.604	 242.445
 4854	  0.4232	 45.6537	  45.654	 242.745
 4860	  0.4236	 45.7038	  45.704	 243.045
 4866	  0.4236	 45.7537	  45.754	 243.345
 4872	  0.4236	 45.8037	  45.804	 243.645
 4878	  0.4232	 45.8537	  45.854	 243.945
 4884	  0.4236	 45.9037	  45.904	 244.245
 4890	  0.4240	 45.9538	  45.954	 244.545
 4896	  0.4244	 46.0037	  46.004	 244.845
 4902	  0.4240	 46.0537	  46.054	 245.145
 4908	  0.4240	 46.1037	  46.104	 245.445
 4914	  0.4240	 46.1537	  46.154	 245.745
 4920	  0.4240	 46.2038	  46.204	 246.045
 4926	  0.4252	 46.2537	  46.254	 246.345
 4932	  0.4256	 46.3037	  46.304	 246.645
 4938	  0.4256	 46.3537	  46.354	 246.945
 4944	  0.4256	 46.4037	  46.404	 247.245
 4950	  0.4260	 46.4538	  46.454	 247.545
 4956	  0.4264	 46.5037	  46.504	 247.845
 4962	  0.4260	 46.5537	  46.554	 248.145
 4968	  0.4256	 46.6037	  46.604	 248.445
 4974	  0.4264	 46.6537	  46.654	 248.745
 4980	  0.4264	 46.7038	  46.704	 249.045
 4986	  0.4264	 46.7537	  46.754	 249.345
 4992	  0.4268	 46.8037	  46.804	 249.645
 4998	  0.4260	 46.8537	  46.854	 249.945
 5004	  0.4272	 46.9037	  46.904	 250.245
 5010	  0.4272	 46.9538	  46.954	 250.545
 5016	  0.4276	 47.0037	  47.004	 250.845
 5022	  0.4276	 47.0537	  47.054	 251.145
 5028	  0.4280	 47.1025	  47.102	 251.445
 5034	  0.4284	 47.1525	  47.153	 251.745
 5040	  0.4276	 47.2012	  47.201	 252.045
 5046	  0.4284	 47.2512	  47.251	 252.345
 5052	  0.4280	 47.3013	  47.301	 252.645
 5058	  0.4284	 47.3512	  47.351	 252.945
 5064	  0.4280	 47.4025	  47.403	 253.245
 5070	  0.4292	 47.4525	  47.452	 253.545
 5076	  0.4296	 47.5025	  47.502	 253.845
 5082	  0.4296	 47.5525	  47.552	 254.145
 5088	  0.4296	 47.6025	  47.602	 254.445
 5094	  0.4296	 47.6525	  47.653	 254.745
 5100	  0.4292	 47.7025	  47.702	 255.045
 5106	  0.4300	 47.7537	  47.754	 255.345
 5112	  0.4288	 47.8037	  47.804	 255.645
 5118	  0.4300	 47.8537	  47.854	 255.945
 5124	  0.4296	 47.9050	  47.905	 256.245
 5130	  0.4300	 47.9550	  47.955	 256.545
 5136	  0.4296	 48.0050	  48.005	 256.845
 5142	  0.4300	 48.0550	  48.055	 257.145
 5148	  0.4304	 48.1063	  48.106	 257.445
 5154	  0.4296	 48.1562	  48.156	 257.745
 5160	  0.4304	 48.2062	  48.206	 258.045
 5166	  0.4304	 48.2575	  48.257	 258.345
 5172	  0.4308	 48.3075	  48.307	 258.645
 5178	  0.4308	 48.3575	  48.357	 258.945
 5184	  0.4304	 48.4087	  48.409	 259.245
 5190	  0.4312	 48.4587	  48.459	 259.545
 5196	  0.4312	 48.5087	  48.509	 259.845
 5202	  0.4316	 48.5588	  48.559	 260.145
 5208	  0.4316	 48.6087	  48.609	 260.445
 5214	  0.4320	 48.6600	  48.660	 260.745
 5220	  0.4316	 48.7100	  48.710	 261.045
 5226	  0.4316	 48.7600	  48.760	 261.345
 5232	  0.4316	 48.8100	  48.810	 261.645
 5238	  0.4320	 48.8600	  48.860	 261.945
 5244	  0.4316	 48.9112	  48.911	 262.245
 5250	  0.4316	 48.9613	  48.961	 262.545
 5256	  0.4324	 49.0112	  49.011	 262.845
 5262	  0.4316	 49.0612	  49.061	 263.145
 5268	  0.4332	 49.1112	  49.111	 263.445
 5274	  0.4328	 49.1612	  49.161	 263.745
 5280	  0.4336	 49.2113	  49.211	 264.045
 5286	  0.4332	 49.2625	  49.263	 264.345
 5292	  0.4328	 49.3125	  49.312	 264.645
 5298	  0.4336	 49.3625	  49.362	 264.945
 5304	  0.4336	 49.4125	  49.412	 265.245
 5310	  0.4344	 49.4625	  49.462	 265.545
 5316	  0.4336	 49.5125	  49.513	 265.845
 5322	  0.4336	 49.5637	  49.564	 266.145
 5328	  0.4336	 49.6125	  49.612	 266.445
 5334	  0.4336	 49.6637	  49.664	 266.745
 5340	  0.4344	 49.7137	  49.714	 267.045
 5346	  0.4336	 49.7637	  49.764	 267.345
 5352	  0.4336	 49.8137	  49.814	 267.645
 5358	  0.4336	 49.8638	  49.864	 267.945
 5364	  0.4336	 49.9137	  49.914	 268.245
 5370	  0.4344	 49.9637	  49.964	 268.545
 5376	  0.4340	 50.0137	  50.014	 268.845
 5382	  0.4344	 50.0637	  50.064	 269.145
 5388	  0.4344	 50.1138	  50.114	 269.445
 5394	  0.4348	 50.1637	  50.164	 269.745
 5400	  0.4352	 50.2137	  50.214	 270.045
 5406	  0.4352	 50.2637	  50.264	 270.345
 5412	  0.4344	 50.3137	  50.314	 270.645
 5418	  0.4344	 50.3638	  50.364	 270.945
 5424	  0.4344	 50.4137	  50.414	 271.245
 5430	  0.4356	 50.4637	  50.464	 271.545
 5436	  0.4352	 50.5137	  50.514	 271.845
 5442	  0.4352	 50.5637	  50.564	 272.145
 5448	  0.4356	 50.6138	  50.614	 272.445
 5454	  0.4364	 50.6637	  50.664	 272.745
 5460	  0.4360	 50.7137	  50.714	 273.045
 5466	  0.4364	 50.7637	  50.764	 273.345
 5472	  0.4368	 50.8137	  50.814	 273.645
 5478	  0.4364	 50.8638	  50.864	 273.945
 5484	  0.4368	 50.9137	  50.914	 274.245
 5490	  0.4368	 50.9637	  50.964	 274.545
 5496	  0.4372	 51.0137	  51.014	 274.845
 5502	  0.4364	 51.0637	  51.064	 275.145
 5508	  0.4368	 51.1138	  51.114	 275.445
 5514	  0.4364	 51.1637	  51.164	 275.745
 5520	  0.4384	 51.2137	  51.214	 276.045
 5526	  0.4368	 51.2637	  51.264	 276.345
 5532	  0.4380	 51.3137	  51.314	 276.645
 5538	  0.4372	 51.3638	  51.364	 276.945
 5544	  0.4380	 51.4137	  51.414	 277.245
 5550	  0.4372	 51.4637	  51.464	 277.545
 5556	  0.4372	 51.5150	  51.515	 277.845
 5562	  0.4384	 51.5650	  51.565	 278.145
 5568	  0.4380	 51.6150	  51.615	 278.445
 5574	  0.4384	 51.6650	  51.665	 278.745
 5580	  0.4380	 51.7150	  51.715	 279.045
 5586	  0.4376	 51.7650	  51.765	 279.345
 5592	  0.4380	 51.8150	  51.815	 279.645
 5598	  0.4388	 51.8662	  51.866	 279.945
 5604	  0.4388	 51.9162	  51.916	 280.245
 5610	  0.4388	 51.9662	  51.966	 280.545
 5616	  0.4396	 52.0163	  52.016	 280.845
 5622	  0.4396	 52.0662	  52.066	 281.145
 5628	  0.4396	 52.1162	  52.116	 281.445
 5634	  0.4400	 52.1662	  52.166	 281.745
 5640	  0.4396	 52.2162	  52.216	 282.045
 5646	  0.4400	 52.2675	  52.267	 282.345
 5652	  0.4396	 52.3175	  52.317	 282.645
 5658	  0.4400	 52.3675	  52.368	 282.945
 5664	  0.4408	 52.4175	  52.417	 283.245
 5670	  0.4408	 52.4675	  52.467	 283.545
 5676	  0.4404	 52.5187	  52.519	 283.845
 5682	  0.4404	 52.5687	  52.569	 284.145
 5688	  0.4400	 52.6187	  52.619	 284.445
 5694	  0.4404	 52.6687	  52.669	 284.745
 5700	  0.4404	 52.7188	  52.719	 285.045
 5706	  0.4408	 52.7700	  52.770	 285.345
 5712	  0.4408	 52.8200	  52.820	 285.645
 5718	  0.4412	 52.8700	  52.870	 285.945
 5724	  0.4420	 52.9200	  52.920	 286.245
 5730	  0.4416	 52.9700	  52.970	 286.545
 5736	  0.4416	 53.0212	  53.021	 286.845
 5742	  0.4412	 53.0712	  53.071	 287.145
 5748	  0.4412	 53.1213	  53.121	 287.445
 5754	  0.4412	 53.1725	  53.173	 287.745
 5760	  0.4416	 53.2225	  53.222	 288.045
 5766	  0.4408	 53.2725	  53.272	 288.345
 5772	  0.4412	 53.3225	  53.322	 288.645
 5778	  0.4424	 53.3725	  53.372	 288.945
 5784	  0.4420	 53.4237	  53.424	 289.245
 5790	  0.4416	 53.4737	  53.474	 289.545
 5796	  0.4428	 53.5238	  53.524	 289.845
 5802	  0.4420	 53.5737	  53.574	 290.145
 5808	  0.4420	 53.6237	  53.624	 290.445
 5814	  0.4428	 53.6750	  53.675	 290.745
 5820	  0.4420	 53.7250	  53.725	 291.045
 5826	  0.4424	 53.7750	  53.775	 291.345
 5832	  0.4416	 53.8250	  53.825	 291.645
 5838	  0.4428	 53.8750	  53.875	 291.945
 5844	  0.4424	 53.9250	  53.925	 292.245
 5850	  0.4428	 53.9750	  53.975	 292.545
 5856	  0.4424	 54.0250	  54.025	 292.845
 5862	  0.4424	 54.0762	  54.076	 293.145
 5868	  0.4428	 54.1262	  54.126	 293.445
 5874	  0.4424	 54.1763	  54.176	 293.745
 5880	  0.4424	 54.2262	  54.226	 294.045
 5886	  0.4436	 54.2762	  54.276	 294.345
 5892	  0.4440	 54.3262	  54.326	 294.645
 5898	  0.4436	 54.3762	  54.376	 294.945
 5904	  0.4436	 54.4263	  54.426	 295.245
 5910	  0.4432	 54.4750	  54.475	 295.545
 5916	  0.4440	 54.5250	  54.525	 295.845
 5922	  0.4444	 54.5750	  54.575	 296.145
 5928	  0.4448	 54.6250	  54.625	 296.445
 5934	  0.4448	 54.6763	  54.676	 296.745
 5940	  0.4448	 54.7262	  54.726	 297.045
 5946	  0.4448	 54.7762	  54.776	 297.345
 5952	  0.4448	 54.8262	  54.826	 297.645
 5958	  0.4452	 54.8762	  54.876	 297.945
 5964	  0.4456	 54.9263	  54.926	 298.245
 5970	  0.4452	 54.9762	  54.976	 298.545
 5976	  0.4456	 55.0250	  55.025	 298.845
 5982	  0.4452	 55.0762	  55.076	 299.145
 5988	  0.4456	 55.1250	  55.125	 299.445
 5994	  0.4464	 55.1763	  55.176	 299.745
 6000	  0.4460	 55.2262	  55.226	 300.045
 6006	  0.4456	 55.2750	  55.275	 300.345
 6012	  0.4460	 55.3250	  55.325	 300.645
 6018	  0.4456	 55.3762	  55.376	 300.945
 6024	  0.4456	 55.4263	  55.426	 301.245
 6030	  0.4460	 55.4762	  55.476	 301.545
 6036	  0.4456	 55.5262	  55.526	 301.845
 6042	  0.4460	 55.5762	  55.576	 302.145
 6048	  0.4460	 55.6262	  55.626	 302.445
 6054	  0.4464	 55.6763	  55.676	 302.745
 6060	  0.4468	 55.7262	  55.726	 303.045
 6066	  0.4468	 55.7775	  55.778	 303.345
 6072	  0.4460	 55.8275	  55.827	 303.645
 6078	  0.4468	 55.8775	  55.877	 303.945
 6084	  0.4468	 55.9275	  55.927	 304.245
 6090	  0.4472	 55.9775	  55.977	 304.545
 6096	  0.4472	 56.0275	  56.028	 304.845
 6102	  0.4464	 56.0775	  56.077	 305.145
 6108	  0.4472	 56.1275	  56.127	 305.445
 6114	  0.4464	 56.1787	  56.179	 305.745
 6120	  0.4464	 56.2287	  56.229	 306.045
 6126	  0.4468	 56.2787	  56.279	 306.345
 6132	  0.4472	 56.3288	  56.329	 306.645
 6138	  0.4472	 56.3787	  56.379	 306.945
 6144	  0.4472	 56.4287	  56.429	 307.245
 6150	  0.4476	 56.4800	  56.480	 307.545
 6156	  0.4476	 56.5300	  56.530	 307.845
 6162	  0.4476	 56.5800	  56.580	 308.145
 6168	  0.4472	 56.6300	  56.630	 308.445
 6174	  0.4480	 56.6812	  56.681	 308.745
 6180	  0.4484	 56.7312	  56.731	 309.045
 6186	  0.4488	 56.7812	  56.781	 309.345
 6192	  0.4488	 56.8312	  56.831	 309.645
 6198	  0.4488	 56.8812	  56.881	 309.945
 6204	  0.4488	 56.9312	  56.931	 310.245
 6210	  0.4488	 56.9825	  56.982	 310.545
 6216	  0.4492	 57.0325	  57.032	 310.845
 6222	  0.4480	 57.0825	  57.083	 311.145
 6228	  0.4484	 57.1325	  57.132	 311.445
 6234	  0.4484	 57.1825	  57.182	 311.745
 6240	  0.4488	 57.2325	  57.232	 312.045
 6246	  0.4484	 57.2825	  57.282	 312.345
 6252	  0.4492	 57.3337	  57.334	 312.645
 6258	  0.4488	 57.3825	  57.382	 312.945
 6264	  0.4484	 57.4338	  57.434	 313.245
 6270	  0.4488	 57.4837	  57.484	 313.545
 6276	  0.4492	 57.5337	  57.534	 313.845
 6282	  0.4488	 57.5837	  57.584	 314.145
 6288	  0.4488	 57.6337	  57.634	 314.445
 6294	  0.4480	 57.6838	  57.684	 314.745
 6300	  0.4492	 57.7350	  57.735	 315.045
 6306	  0.4496	 57.7850	  57.785	 315.345
 6312	  0.4492	 57.8350	  57.835	 315.645
 6318	  0.4484	 57.8862	  57.886	 315.945
 6324	  0.4488	 57.9362	  57.936	 316.245
 6330	  0.4488	 57.9862	  57.986	 316.545
 6336	  0.4496	 58.0375	  58.037	 316.845
 6342	  0.4488	 58.0875	  58.087	 317.145
 6348	  0.4496	 58.1375	  58.137	 317.445
 6354	  0.4488	 58.1875	  58.188	 317.745
 6360	  0.4472	 58.2375	  58.237	 318.045
 6366	  0.0016	 58.2875	  58.287	 318.345
 6372	  0.0024	 58.3375	  58.337	 318.645
 6378	  0.0012	 58.3875	  58.387	 318.945
 6384	  0.0020	 58.4387	  58.439	 319.245
 6390	  0.0012	 58.4888	  58.489	 319.545
 6396	  0.0016	 58.5375	  58.537	 319.845
 6402	  0.0016	 58.5887	  58.589	 320.145
 6408	  0.0016	 58.6375	  58.637	 320.445
 6414	  0.0016	 58.6875	  58.688	 320.745
 6420	  0.0012	 58.7388	  58.739	 321.045
 6426	  0.0012	 58.7875	  58.787	 321.345
 6432	  0.0012	 58.8375	  58.837	 321.645
 6438	  0.0016	 58.8875	  58.887	 321.945
 6444	  0.0016	 58.9375	  58.938	 322.245
 6450	  0.0012	 58.9875	  58.987	 322.545
 6456	  0.0016	 59.0375	  59.037	 322.845
 6461	  0.0012	 59.0800	  59.080	 323.095
ControlMode:	0
Rate:	 10.0000
(null)
4
step	1
0
5.000000
0.000000
1
1
0.500000
2
step	2
1
5.000000
0.000000
1
1
2.000000
3
step	3
5
2.000000
0.000000
1
0
30
4
step	4
8
0.000000
0.000000
0
0
0.000000
0
2