File: Dados - Tração/P2-lacre pratic 01.txt
0
Diameter:	   5.00
   1.00
Area:	  19.6350
GaugeLength:	  50.00
2009-1-1
A3
001
DataNumber:	3117
index	Load(kN)	Defor(mm)	Stroke(mm)	Time(s)
    0	  0.0096	  0.0088	   0.009	   0.045
    3	  0.0096	  0.0337	   0.034	   0.195
    6	  0.0104	  0.0587	   0.059	   0.345
    9	  0.0104	  0.0837	   0.084	   0.495
   12	  0.0104	  0.1075	   0.107	   0.645
   15	  0.0100	  0.1325	   0.132	   0.795
   18	  0.0100	  0.1587	   0.159	   0.945
   21	  0.0112	  0.1837	   0.184	   1.095
   24	  0.0108	  0.2087	   0.209	   1.245
   27	  0.0108	  0.2338	   0.234	   1.395
   30	  0.0108	  0.2587	   0.259	   1.545
   33	  0.0116	  0.2837	   0.284	   1.695
   36	  0.0112	  0.3088	   0.309	   1.845
   39	  0.0116	  0.3337	   0.334	   1.995
   42	  0.0120	  0.3587	   0.359	   2.145
   45	  0.0116	  0.3837	   0.384	   2.295
   48	  0.0112	  0.4087	   0.409	   2.445
   51	  0.0112	  0.4338	   0.434	   2.595
   54	  0.0120	  0.4587	   0.459	   2.745
   57	  0.0120	  0.4837	   0.484	   2.895
   60	  0.0124	  0.5087	   0.509	   3.045
   63	  0.0128	  0.5337	   0.534	   3.195
   66	  0.0132	  0.5587	   0.559	   3.345
   69	  0.0128	  0.5838	   0.584	   3.495
   72	  0.0132	  0.6087	   0.609	   3.645
   75	  0.0132	  0.6337	   0.634	   3.795
   78	  0.0136	  0.6587	   0.659	   3.945
   81	  0.0128	  0.6837	   0.684	   4.095
   84	  0.0132	  0.7088	   0.709	   4.245
   87	  0.0136	  0.7337	   0.734	   4.395
   90	  0.0136	  0.7587	   0.759	   4.545
   93	  0.0136	  0.7837	   0.784	   4.695
   96	  0.0148	  0.8087	   0.809	   4.845
   99	  0.0144	  0.8338	   0.834	   4.995
  102	  0.0140	  0.8587	   0.859	   5.145
  105	  0.0144	  0.8837	   0.884	   5.295
  108	  0.0144	  0.9087	   0.909	   5.445
  111	  0.0148	  0.9337	   0.934	   5.595
  114	  0.0156	  0.9587	   0.959	   5.745
  117	  0.0156	  0.9837	   0.984	   5.895
  120	  0.0160	  1.0087	   1.009	   6.045
  123	  0.0164	  1.0337	   1.034	   6.195
  126	  0.0164	  1.0588	   1.059	   6.345
  129	  0.0168	  1.0838	   1.084	   6.495
  132	  0.0172	  1.1087	   1.109	   6.645
  135	  0.0172	  1.1337	   1.134	   6.795
  138	  0.0176	  1.1587	   1.159	   6.945
  141	  0.0172	  1.1837	   1.184	   7.095
  144	  0.0172	  1.2088	   1.209	   7.245
  147	  0.0180	  1.2337	   1.234	   7.395
  150	  0.0184	  1.2587	   1.259	   7.545
  153	  0.0184	  1.2850	   1.285	   7.695
  156	  0.0188	  1.3100	   1.310	   7.845
  159	  0.0188	  1.3350	   1.335	   7.995
  162	  0.0196	  1.3587	   1.359	   8.145
  165	  0.0200	  1.3850	   1.385	   8.295
  168	  0.0200	  1.4100	   1.410	   8.445
  171	  0.0196	  1.4350	   1.435	   8.595
  174	  0.0208	  1.4600	   1.460	   8.745
  177	  0.0212	  1.4850	   1.485	   8.895
  180	  0.0208	  1.5100	   1.510	   9.045
  183	  0.0212	  1.5350	   1.535	   9.195
  186	  0.0220	  1.5600	   1.560	   9.345
  189	  0.0212	  1.5850	   1.585	   9.495
  192	  0.0224	  1.6100	   1.610	   9.645
  195	  0.0232	  1.6350	   1.635	   9.795
  198	  0.0228	  1.6600	   1.660	   9.945
  201	  0.0232	  1.6850	   1.685	  10.095
  204	  0.0232	  1.7100	   1.710	  10.245
  207	  0.0240	  1.7350	   1.735	  10.395
  210	  0.0236	  1.7600	   1.760	  10.545
  213	  0.0240	  1.7850	   1.785	  10.695
  216	  0.0244	  1.8100	   1.810	  10.845
  219	  0.0252	  1.8350	   1.835	  10.995
  222	  0.0256	  1.8600	   1.860	  11.145
  225	  0.0252	  1.8850	   1.885	  11.295
  228	  0.0252	  1.9100	   1.910	  11.445
  231	  0.0256	  1.9350	   1.935	  11.595
  234	  0.0256	  1.9600	   1.960	  11.745
  237	  0.0264	  1.9862	   1.986	  11.895
  240	  0.0264	  2.0113	   2.011	  12.045
  243	  0.0272	  2.0362	   2.036	  12.195
  246	  0.0272	  2.0612	   2.061	  12.345
  249	  0.0272	  2.0863	   2.086	  12.495
  252	  0.0276	  2.1112	   2.111	  12.645
  255	  0.0280	  2.1363	   2.136	  12.795
  258	  0.0288	  2.1612	   2.161	  12.945
  261	  0.0288	  2.1862	   2.186	  13.095
  264	  0.0296	  2.2125	   2.212	  13.245
  267	  0.0300	  2.2362	   2.236	  13.395
  270	  0.0300	  2.2625	   2.263	  13.545
  273	  0.0304	  2.2875	   2.287	  13.695
  276	  0.0308	  2.3125	   2.312	  13.845
  279	  0.0308	  2.3375	   2.337	  13.995
  282	  0.0320	  2.3625	   2.362	  14.145
  285	  0.0320	  2.3875	   2.388	  14.295
  288	  0.0324	  2.4137	   2.414	  14.445
  291	  0.0328	  2.4388	   2.439	  14.595
  294	  0.0324	  2.4637	   2.464	  14.745
  297	  0.0324	  2.4887	   2.489	  14.895
  300	  0.0328	  2.5150	   2.515	  15.045
  303	  0.0328	  2.5400	   2.540	  15.195
  306	  0.0336	  2.5650	   2.565	  15.345
  309	  0.0340	  2.5900	   2.590	  15.495
  312	  0.0348	  2.6150	   2.615	  15.645
  315	  0.0356	  2.6400	   2.640	  15.795
  318	  0.0352	  2.6662	   2.666	  15.945
  321	  0.0352	  2.6912	   2.691	  16.095
  324	  0.0368	  2.7162	   2.716	  16.245
  327	  0.0372	  2.7413	   2.741	  16.395
  330	  0.0372	  2.7662	   2.766	  16.545
  333	  0.0376	  2.7912	   2.791	  16.695
  336	  0.0384	  2.8175	   2.817	  16.845
  339	  0.0392	  2.8425	   2.842	  16.995
  342	  0.0404	  2.8675	   2.867	  17.145
  345	  0.0400	  2.8925	   2.892	  17.295
  348	  0.0404	  2.9175	   2.918	  17.445
  351	  0.0408	  2.9425	   2.942	  17.595
  354	  0.0408	  2.9675	   2.967	  17.745
  357	  0.0412	  2.9925	   2.992	  17.895
  360	  0.0416	  3.0187	   3.019	  18.045
  363	  0.0416	  3.0438	   3.044	  18.195
  366	  0.0424	  3.0687	   3.069	  18.345
  369	  0.0436	  3.0938	   3.094	  18.495
  372	  0.0448	  3.1187	   3.119	  18.645
  375	  0.0444	  3.1437	   3.144	  18.795
  378	  0.0448	  3.1688	   3.169	  18.945
  381	  0.0456	  3.1937	   3.194	  19.095
  384	  0.0460	  3.2188	   3.219	  19.245
  387	  0.0460	  3.2437	   3.244	  19.395
  390	  0.0464	  3.2687	   3.269	  19.545
  393	  0.0464	  3.2950	   3.295	  19.695
  396	  0.0468	  3.3187	   3.319	  19.845
  399	  0.0484	  3.3438	   3.344	  19.995
  402	  0.0480	  3.3687	   3.369	  20.145
  405	  0.0492	  3.3937	   3.394	  20.295
  408	  0.0492	  3.4200	   3.420	  20.445
  411	  0.0492	  3.4437	   3.444	  20.595
  414	  0.0496	  3.4688	   3.469	  20.745
  417	  0.0496	  3.4937	   3.494	  20.895
  420	  0.0504	  3.5200	   3.520	  21.045
  423	  0.0504	  3.5450	   3.545	  21.195
  426	  0.0512	  3.5700	   3.570	  21.345
  429	  0.0512	  3.5950	   3.595	  21.495
  432	  0.0524	  3.6200	   3.620	  21.645
  435	  0.0524	  3.6450	   3.645	  21.795
  438	  0.0532	  3.6700	   3.670	  21.945
  441	  0.0540	  3.6950	   3.695	  22.095
  444	  0.0548	  3.7200	   3.720	  22.245
  447	  0.0556	  3.7437	   3.744	  22.395
  450	  0.0560	  3.7700	   3.770	  22.545
  453	  0.0572	  3.7950	   3.795	  22.695
  456	  0.0576	  3.8200	   3.820	  22.845
  459	  0.0584	  3.8450	   3.845	  22.995
  462	  0.0588	  3.8700	   3.870	  23.145
  465	  0.0584	  3.8950	   3.895	  23.295
  468	  0.0596	  3.9200	   3.920	  23.445
  471	  0.0596	  3.9437	   3.944	  23.595
  474	  0.0600	  3.9700	   3.970	  23.745
  477	  0.0612	  3.9937	   3.994	  23.895
  480	  0.0616	  4.0200	   4.020	  24.045
  483	  0.0620	  4.0450	   4.045	  24.195
  486	  0.0616	  4.0700	   4.070	  24.345
  489	  0.0632	  4.0950	   4.095	  24.495
  492	  0.0636	  4.1200	   4.120	  24.645
  495	  0.0640	  4.1450	   4.145	  24.795
  498	  0.0644	  4.1700	   4.170	  24.945
  501	  0.0656	  4.1950	   4.195	  25.095
  504	  0.0664	  4.2200	   4.220	  25.245
  507	  0.0664	  4.2450	   4.245	  25.395
  510	  0.0676	  4.2700	   4.270	  25.545
  513	  0.0676	  4.2950	   4.295	  25.695
  516	  0.0688	  4.3200	   4.320	  25.845
  519	  0.0688	  4.3450	   4.345	  25.995
  522	  0.0688	  4.3700	   4.370	  26.145
  525	  0.0696	  4.3950	   4.395	  26.295
  528	  0.0704	  4.4200	   4.420	  26.445
  531	  0.0708	  4.4450	   4.445	  26.595
  534	  0.0712	  4.4700	   4.470	  26.745
  537	  0.0712	  4.4950	   4.495	  26.895
  540	  0.0716	  4.5200	   4.520	  27.045
  543	  0.0724	  4.5450	   4.545	  27.195
  546	  0.0732	  4.5700	   4.570	  27.345
  549	  0.0740	  4.5950	   4.595	  27.495
  552	  0.0744	  4.6200	   4.620	  27.645
  555	  0.0752	  4.6450	   4.645	  27.795
  558	  0.0752	  4.6700	   4.670	  27.945
  561	  0.0752	  4.6950	   4.695	  28.095
  564	  0.0760	  4.7200	   4.720	  28.245
  567	  0.0764	  4.7438	   4.744	  28.395
  570	  0.0768	  4.7700	   4.770	  28.545
  573	  0.0772	  4.7950	   4.795	  28.695
  576	  0.0776	  4.8200	   4.820	  28.845
  579	  0.0792	  4.8450	   4.845	  28.995
  582	  0.0796	  4.8688	   4.869	  29.145
  585	  0.0788	  4.8950	   4.895	  29.295
  588	  0.0800	  4.9200	   4.920	  29.445
  591	  0.0804	  4.9450	   4.945	  29.595
  594	  0.0800	  4.9700	   4.970	  29.745
  597	  0.0804	  4.9938	   4.994	  29.895
  600	  0.0812	  5.0200	   5.020	  30.045
  603	  0.0824	  5.0450	   5.045	  30.195
  606	  0.0820	  5.0687	   5.069	  30.345
  609	  0.0832	  5.0950	   5.095	  30.495
  612	  0.0836	  5.1200	   5.120	  30.645
  615	  0.0844	  5.1450	   5.145	  30.795
  618	  0.0848	  5.1700	   5.170	  30.945
  621	  0.0852	  5.1950	   5.195	  31.095
  624	  0.0856	  5.2200	   5.220	  31.245
  627	  0.0852	  5.2450	   5.245	  31.395
  630	  0.0860	  5.2700	   5.270	  31.545
  633	  0.0864	  5.2950	   5.295	  31.695
  636	  0.0864	  5.3200	   5.320	  31.845
  639	  0.0876	  5.3450	   5.345	  31.995
  642	  0.0880	  5.3700	   5.370	  32.145
  645	  0.0888	  5.3950	   5.395	  32.295
  648	  0.0888	  5.4200	   5.420	  32.445
  651	  0.0904	  5.4450	   5.445	  32.595
  654	  0.0900	  5.4713	   5.471	  32.745
  657	  0.0904	  5.4962	   5.496	  32.895
  660	  0.0908	  5.5212	   5.521	  33.045
  663	  0.0912	  5.5462	   5.546	  33.195
  666	  0.0924	  5.5712	   5.571	  33.345
  669	  0.0920	  5.5963	   5.596	  33.495
  672	  0.0932	  5.6212	   5.621	  33.645
  675	  0.0940	  5.6462	   5.646	  33.795
  678	  0.0940	  5.6712	   5.671	  33.945
  681	  0.0936	  5.6962	   5.696	  34.095
  684	  0.0952	  5.7213	   5.721	  34.245
  687	  0.0944	  5.7462	   5.746	  34.395
  690	  0.0956	  5.7712	   5.771	  34.545
  693	  0.0952	  5.7962	   5.796	  34.695
  696	  0.0960	  5.8225	   5.822	  34.845
  699	  0.0960	  5.8475	   5.847	  34.995
  702	  0.0980	  5.8725	   5.872	  35.145
  705	  0.0976	  5.8975	   5.898	  35.295
  708	  0.0988	  5.9225	   5.922	  35.445
  711	  0.0980	  5.9475	   5.947	  35.595
  714	  0.0992	  5.9725	   5.972	  35.745
  717	  0.0996	  5.9975	   5.997	  35.895
  720	  0.1004	  6.0225	   6.023	  36.045
  723	  0.1004	  6.0475	   6.047	  36.195
  726	  0.1000	  6.0725	   6.072	  36.345
  729	  0.1004	  6.0975	   6.097	  36.495
  732	  0.1016	  6.1225	   6.122	  36.645
  735	  0.1024	  6.1487	   6.149	  36.795
  738	  0.1020	  6.1737	   6.174	  36.945
  741	  0.1020	  6.1988	   6.199	  37.095
  744	  0.1028	  6.2237	   6.224	  37.245
  747	  0.1028	  6.2487	   6.249	  37.395
  750	  0.1036	  6.2737	   6.274	  37.545
  753	  0.1044	  6.2987	   6.299	  37.695
  756	  0.1040	  6.3238	   6.324	  37.845
  759	  0.1052	  6.3500	   6.350	  37.995
  762	  0.1056	  6.3750	   6.375	  38.145
  765	  0.1068	  6.4000	   6.400	  38.295
  768	  0.1068	  6.4250	   6.425	  38.445
  771	  0.1072	  6.4500	   6.450	  38.595
  774	  0.1068	  6.4750	   6.475	  38.745
  777	  0.1076	  6.5000	   6.500	  38.895
  780	  0.1088	  6.5250	   6.525	  39.045
  783	  0.1088	  6.5512	   6.551	  39.195
  786	  0.1096	  6.5763	   6.576	  39.345
  789	  0.1104	  6.6012	   6.601	  39.495
  792	  0.1108	  6.6262	   6.626	  39.645
  795	  0.1112	  6.6512	   6.651	  39.795
  798	  0.1116	  6.6762	   6.676	  39.945
  801	  0.1112	  6.7013	   6.701	  40.095
  804	  0.1120	  6.7262	   6.726	  40.245
  807	  0.1128	  6.7525	   6.753	  40.395
  810	  0.1128	  6.7775	   6.777	  40.545
  813	  0.1132	  6.8025	   6.802	  40.695
  816	  0.1136	  6.8275	   6.827	  40.845
  819	  0.1152	  6.8525	   6.852	  40.995
  822	  0.1152	  6.8775	   6.878	  41.145
  825	  0.1160	  6.9025	   6.902	  41.295
  828	  0.1156	  6.9275	   6.927	  41.445
  831	  0.1160	  6.9525	   6.952	  41.595
  834	  0.1168	  6.9775	   6.977	  41.745
  837	  0.1168	  7.0025	   7.003	  41.895
  840	  0.1164	  7.0275	   7.027	  42.045
  843	  0.1172	  7.0525	   7.052	  42.195
  846	  0.1172	  7.0775	   7.077	  42.345
  849	  0.1176	  7.1037	   7.104	  42.495
  852	  0.1180	  7.1287	   7.129	  42.645
  855	  0.1180	  7.1537	   7.154	  42.795
  858	  0.1188	  7.1788	   7.179	  42.945
  861	  0.1192	  7.2037	   7.204	  43.095
  864	  0.1192	  7.2287	   7.229	  43.245
  867	  0.1196	  7.2537	   7.254	  43.395
  870	  0.1200	  7.2787	   7.279	  43.545
  873	  0.1200	  7.3038	   7.304	  43.695
  876	  0.1212	  7.3287	   7.329	  43.845
  879	  0.1212	  7.3537	   7.354	  43.995
  882	  0.1212	  7.3787	   7.379	  44.145
  885	  0.1216	  7.4037	   7.404	  44.295
  888	  0.1216	  7.4300	   7.430	  44.445
  891	  0.1220	  7.4550	   7.455	  44.595
  894	  0.1232	  7.4800	   7.480	  44.745
  897	  0.1232	  7.5050	   7.505	  44.895
  900	  0.1236	  7.5300	   7.530	  45.045
  903	  0.1236	  7.5550	   7.555	  45.195
  906	  0.1236	  7.5800	   7.580	  45.345
  909	  0.1236	  7.6050	   7.605	  45.495
  912	  0.1252	  7.6300	   7.630	  45.645
  915	  0.1248	  7.6550	   7.655	  45.795
  918	  0.1252	  7.6800	   7.680	  45.945
  921	  0.1256	  7.7050	   7.705	  46.095
  924	  0.1252	  7.7300	   7.730	  46.245
  927	  0.1268	  7.7550	   7.755	  46.395
  930	  0.1256	  7.7812	   7.781	  46.545
  933	  0.1264	  7.8062	   7.806	  46.695
  936	  0.1268	  7.8312	   7.831	  46.845
  939	  0.1276	  7.8562	   7.856	  46.995
  942	  0.1272	  7.8812	   7.881	  47.145
  945	  0.1280	  7.9062	   7.906	  47.295
  948	  0.1284	  7.9312	   7.931	  47.445
  951	  0.1280	  7.9562	   7.956	  47.595
  954	  0.1276	  7.9812	   7.981	  47.745
  957	  0.1284	  8.0062	   8.006	  47.895
  960	  0.1284	  8.0312	   8.031	  48.045
  963	  0.1300	  8.0562	   8.056	  48.195
  966	  0.1300	  8.0813	   8.081	  48.345
  969	  0.1308	  8.1062	   8.106	  48.495
  972	  0.1304	  8.1312	   8.131	  48.645
  975	  0.1308	  8.1562	   8.156	  48.795
  978	  0.1312	  8.1812	   8.181	  48.945
  981	  0.1316	  8.2063	   8.206	  49.095
  984	  0.1312	  8.2312	   8.231	  49.245
  987	  0.1320	  8.2562	   8.256	  49.395
  990	  0.1328	  8.2825	   8.283	  49.545
  993	  0.1328	  8.3062	   8.306	  49.695
  996	  0.1336	  8.3313	   8.331	  49.845
  999	  0.1336	  8.3562	   8.356	  49.995
 1002	  0.1336	  8.3812	   8.381	  50.145
 1005	  0.1344	  8.4062	   8.406	  50.295
 1008	  0.1348	  8.4325	   8.432	  50.445
 1011	  0.1352	  8.4563	   8.456	  50.595
 1014	  0.1360	  8.4825	   8.483	  50.745
 1017	  0.1356	  8.5075	   8.507	  50.895
 1020	  0.1364	  8.5325	   8.533	  51.045
 1023	  0.1368	  8.5575	   8.557	  51.195
 1026	  0.1368	  8.5825	   8.582	  51.345
 1029	  0.1376	  8.6075	   8.608	  51.495
 1032	  0.1372	  8.6325	   8.632	  51.645
 1035	  0.1376	  8.6575	   8.658	  51.795
 1038	  0.1368	  8.6825	   8.682	  51.945
 1041	  0.1380	  8.7075	   8.707	  52.095
 1044	  0.1380	  8.7325	   8.733	  52.245
 1047	  0.1392	  8.7575	   8.757	  52.395
 1050	  0.1380	  8.7825	   8.783	  52.545
 1053	  0.1388	  8.8075	   8.807	  52.695
 1056	  0.1396	  8.8325	   8.832	  52.845
 1059	  0.1392	  8.8575	   8.858	  52.995
 1062	  0.1396	  8.8825	   8.882	  53.145
 1065	  0.1404	  8.9075	   8.908	  53.295
 1068	  0.1408	  8.9325	   8.932	  53.445
 1071	  0.1408	  8.9587	   8.959	  53.595
 1074	  0.1420	  8.9837	   8.984	  53.745
 1077	  0.1420	  9.0087	   9.009	  53.895
 1080	  0.1424	  9.0337	   9.034	  54.045
 1083	  0.1424	  9.0588	   9.059	  54.195
 1086	  0.1420	  9.0837	   9.084	  54.345
 1089	  0.1424	  9.1087	   9.109	  54.495
 1092	  0.1420	  9.1337	   9.134	  54.645
 1095	  0.1424	  9.1587	   9.159	  54.795
 1098	  0.1432	  9.1838	   9.184	  54.945
 1101	  0.1432	  9.2087	   9.209	  55.095
 1104	  0.1436	  9.2337	   9.234	  55.245
 1107	  0.1440	  9.2587	   9.259	  55.395
 1110	  0.1440	  9.2837	   9.284	  55.545
 1113	  0.1444	  9.3088	   9.309	  55.695
 1116	  0.1448	  9.3337	   9.334	  55.845
 1119	  0.1448	  9.3587	   9.359	  55.995
 1122	  0.1448	  9.3837	   9.384	  56.145
 1125	  0.1456	  9.4087	   9.409	  56.295
 1128	  0.1460	  9.4338	   9.434	  56.445
 1131	  0.1456	  9.4587	   9.459	  56.595
 1134	  0.1460	  9.4850	   9.485	  56.745
 1137	  0.1468	  9.5100	   9.510	  56.895
 1140	  0.1472	  9.5350	   9.535	  57.045
 1143	  0.1468	  9.5600	   9.560	  57.195
 1146	  0.1464	  9.5850	   9.585	  57.345
 1149	  0.1476	  9.6100	   9.610	  57.495
 1152	  0.1476	  9.6350	   9.635	  57.645
 1155	  0.1480	  9.6600	   9.660	  57.795
 1158	  0.1476	  9.6850	   9.685	  57.945
 1161	  0.1488	  9.7100	   9.710	  58.095
 1164	  0.1476	  9.7350	   9.735	  58.245
 1167	  0.1492	  9.7600	   9.760	  58.395
 1170	  0.1496	  9.7850	   9.785	  58.545
 1173	  0.1492	  9.8112	   9.811	  58.695
 1176	  0.1500	  9.8362	   9.836	  58.845
 1179	  0.1508	  9.8612	   9.861	  58.995
 1182	  0.1496	  9.8862	   9.886	  59.145
 1185	  0.1496	  9.9113	   9.911	  59.295
 1188	  0.1508	  9.9362	   9.936	  59.445
 1191	  0.1508	  9.9612	   9.961	  59.595
 1194	  0.1508	  9.9862	   9.986	  59.745
 1197	  0.1516	 10.0112	  10.011	  59.895
 1200	  0.1516	 10.0363	  10.036	  60.045
 1203	  0.1520	 10.0612	  10.061	  60.195
 1206	  0.1524	 10.0862	  10.086	  60.345
 1209	  0.1524	 10.1112	  10.111	  60.495
 1212	  0.1524	 10.1350	  10.135	  60.645
 1215	  0.1528	 10.1600	  10.160	  60.795
 1218	  0.1528	 10.1862	  10.186	  60.945
 1221	  0.1532	 10.2112	  10.211	  61.095
 1224	  0.1536	 10.2362	  10.236	  61.245
 1227	  0.1536	 10.2612	  10.261	  61.395
 1230	  0.1540	 10.2863	  10.286	  61.545
 1233	  0.1544	 10.3112	  10.311	  61.695
 1236	  0.1540	 10.3362	  10.336	  61.845
 1239	  0.1548	 10.3612	  10.361	  61.995
 1242	  0.1552	 10.3862	  10.386	  62.145
 1245	  0.1556	 10.4113	  10.411	  62.295
 1248	  0.1552	 10.4362	  10.436	  62.445
 1251	  0.1544	 10.4612	  10.461	  62.595
 1254	  0.1556	 10.4875	  10.488	  62.745
 1257	  0.1560	 10.5125	  10.512	  62.895
 1260	  0.1560	 10.5375	  10.537	  63.045
 1263	  0.1556	 10.5625	  10.562	  63.195
 1266	  0.1560	 10.5875	  10.587	  63.345
 1269	  0.1568	 10.6125	  10.613	  63.495
 1272	  0.1568	 10.6375	  10.637	  63.645
 1275	  0.1572	 10.6637	  10.664	  63.795
 1278	  0.1572	 10.6887	  10.689	  63.945
 1281	  0.1564	 10.7137	  10.714	  64.095
 1284	  0.1576	 10.7387	  10.739	  64.245
 1287	  0.1572	 10.7638	  10.764	  64.395
 1290	  0.1580	 10.7887	  10.789	  64.545
 1293	  0.1580	 10.8137	  10.814	  64.695
 1296	  0.1584	 10.8387	  10.839	  64.845
 1299	  0.1580	 10.8650	  10.865	  64.995
 1302	  0.1584	 10.8888	  10.889	  65.145
 1305	  0.1592	 10.9150	  10.915	  65.295
 1308	  0.1592	 10.9400	  10.940	  65.445
 1311	  0.1592	 10.9650	  10.965	  65.595
 1314	  0.1600	 10.9900	  10.990	  65.745
 1317	  0.1596	 11.0150	  11.015	  65.895
 1320	  0.1604	 11.0400	  11.040	  66.045
 1323	  0.1612	 11.0650	  11.065	  66.195
 1326	  0.1608	 11.0900	  11.090	  66.345
 1329	  0.1612	 11.1150	  11.115	  66.495
 1332	  0.1604	 11.1412	  11.141	  66.645
 1335	  0.1608	 11.1662	  11.166	  66.795
 1338	  0.1608	 11.1912	  11.191	  66.945
 1341	  0.1616	 11.2162	  11.216	  67.095
 1344	  0.1616	 11.2413	  11.241	  67.245
 1347	  0.1612	 11.2662	  11.266	  67.395
 1350	  0.1620	 11.2912	  11.291	  67.545
 1353	  0.1620	 11.3162	  11.316	  67.695
 1356	  0.1624	 11.3412	  11.341	  67.845
 1359	  0.1628	 11.3663	  11.366	  67.995
 1362	  0.1632	 11.3912	  11.391	  68.145
 1365	  0.1628	 11.4162	  11.416	  68.295
 1368	  0.1628	 11.4412	  11.441	  68.445
 1371	  0.1624	 11.4662	  11.466	  68.595
 1374	  0.1628	 11.4913	  11.491	  68.745
 1377	  0.1632	 11.5162	  11.516	  68.895
 1380	  0.1632	 11.5412	  11.541	  69.045
 1383	  0.1640	 11.5675	  11.568	  69.195
 1386	  0.1640	 11.5925	  11.592	  69.345
 1389	  0.1640	 11.6175	  11.617	  69.495
 1392	  0.1640	 11.6425	  11.642	  69.645
 1395	  0.1644	 11.6675	  11.667	  69.795
 1398	  0.1644	 11.6925	  11.693	  69.945
 1401	  0.1652	 11.7175	  11.717	  70.095
 1404	  0.1660	 11.7425	  11.742	  70.245
 1407	  0.1656	 11.7675	  11.767	  70.395
 1410	  0.1656	 11.7925	  11.792	  70.545
 1413	  0.1660	 11.8175	  11.818	  70.695
 1416	  0.1664	 11.8425	  11.842	  70.845
 1419	  0.1664	 11.8675	  11.867	  70.995
 1422	  0.1664	 11.8925	  11.892	  71.145
 1425	  0.1660	 11.9175	  11.917	  71.295
 1428	  0.1660	 11.9425	  11.943	  71.445
 1431	  0.1664	 11.9675	  11.967	  71.595
 1434	  0.1668	 11.9925	  11.992	  71.745
 1437	  0.1668	 12.0175	  12.017	  71.895
 1440	  0.1660	 12.0425	  12.042	  72.045
 1443	  0.1672	 12.0675	  12.068	  72.195
 1446	  0.1672	 12.0925	  12.092	  72.345
 1449	  0.1676	 12.1175	  12.117	  72.495
 1452	  0.1680	 12.1425	  12.142	  72.645
 1455	  0.1676	 12.1675	  12.167	  72.795
 1458	  0.1676	 12.1925	  12.193	  72.945
 1461	  0.1680	 12.2175	  12.217	  73.095
 1464	  0.1684	 12.2425	  12.242	  73.245
 1467	  0.1680	 12.2675	  12.267	  73.395
 1470	  0.1684	 12.2925	  12.292	  73.545
 1473	  0.1688	 12.3175	  12.318	  73.695
 1476	  0.1692	 12.3425	  12.342	  73.845
 1479	  0.1692	 12.3675	  12.367	  73.995
 1482	  0.1696	 12.3925	  12.392	  74.145
 1485	  0.1692	 12.4187	  12.419	  74.295
 1488	  0.1696	 12.4437	  12.444	  74.445
 1491	  0.1696	 12.4688	  12.469	  74.595
 1494	  0.1700	 12.4937	  12.494	  74.745
 1497	  0.1704	 12.5188	  12.519	  74.895
 1500	  0.1708	 12.5437	  12.544	  75.045
 1503	  0.1704	 12.5687	  12.569	  75.195
 1506	  0.1708	 12.5938	  12.594	  75.345
 1509	  0.1712	 12.6187	  12.619	  75.495
 1512	  0.1716	 12.6438	  12.644	  75.645
 1515	  0.1704	 12.6687	  12.669	  75.795
 1518	  0.1716	 12.6950	  12.695	  75.945
 1521	  0.1720	 12.7200	  12.720	  76.095
 1524	  0.1708	 12.7450	  12.745	  76.245
 1527	  0.1720	 12.7700	  12.770	  76.395
 1530	  0.1720	 12.7950	  12.795	  76.545
 1533	  0.1724	 12.8200	  12.820	  76.695
 1536	  0.1724	 12.8450	  12.845	  76.845
 1539	  0.1732	 12.8700	  12.870	  76.995
 1542	  0.1732	 12.8950	  12.895	  77.145
 1545	  0.1728	 12.9200	  12.920	  77.295
 1548	  0.1732	 12.9450	  12.945	  77.445
 1551	  0.1728	 12.9700	  12.970	  77.595
 1554	  0.1736	 12.9950	  12.995	  77.745
 1557	  0.1736	 13.0200	  13.020	  77.895
 1560	  0.1744	 13.0450	  13.045	  78.045
 1563	  0.1740	 13.0700	  13.070	  78.195
 1566	  0.1736	 13.0950	  13.095	  78.345
 1569	  0.1736	 13.1200	  13.120	  78.495
 1572	  0.1744	 13.1450	  13.145	  78.645
 1575	  0.1748	 13.1700	  13.170	  78.795
 1578	  0.1740	 13.1950	  13.195	  78.945
 1581	  0.1752	 13.2200	  13.220	  79.095
 1584	  0.1744	 13.2450	  13.245	  79.245
 1587	  0.1740	 13.2700	  13.270	  79.395
 1590	  0.1748	 13.2950	  13.295	  79.545
 1593	  0.1744	 13.3200	  13.320	  79.695
 1596	  0.1748	 13.3450	  13.345	  79.845
 1599	  0.1744	 13.3700	  13.370	  79.995
 1602	  0.1748	 13.3950	  13.395	  80.145
 1605	  0.1752	 13.4200	  13.420	  80.295
 1608	  0.1748	 13.4450	  13.445	  80.445
 1611	  0.1752	 13.4700	  13.470	  80.595
 1614	  0.1744	 13.4950	  13.495	  80.745
 1617	  0.1748	 13.5200	  13.520	  80.895
 1620	  0.1760	 13.5450	  13.545	  81.045
 1623	  0.1764	 13.5700	  13.570	  81.195
 1626	  0.1756	 13.5950	  13.595	  81.345
 1629	  0.1760	 13.6200	  13.620	  81.495
 1632	  0.1760	 13.6450	  13.645	  81.645
 1635	  0.1768	 13.6700	  13.670	  81.795
 1638	  0.1764	 13.6950	  13.695	  81.945
 1641	  0.1768	 13.7200	  13.720	  82.095
 1644	  0.1772	 13.7450	  13.745	  82.245
 1647	  0.1780	 13.7700	  13.770	  82.395
 1650	  0.1772	 13.7950	  13.795	  82.545
 1653	  0.1772	 13.8200	  13.820	  82.695
 1656	  0.1780	 13.8450	  13.845	  82.845
 1659	  0.1776	 13.8700	  13.870	  82.995
 1662	  0.1776	 13.8950	  13.895	  83.145
 1665	  0.1780	 13.9200	  13.920	  83.295
 1668	  0.1776	 13.9450	  13.945	  83.445
 1671	  0.1784	 13.9712	  13.971	  83.595
 1674	  0.1788	 13.9963	  13.996	  83.745
 1677	  0.1796	 14.0212	  14.021	  83.895
 1680	  0.1796	 14.0462	  14.046	  84.045
 1683	  0.1788	 14.0712	  14.071	  84.195
 1686	  0.1792	 14.0962	  14.096	  84.345
 1689	  0.1792	 14.1213	  14.121	  84.495
 1692	  0.1796	 14.1462	  14.146	  84.645
 1695	  0.1800	 14.1712	  14.171	  84.795
 1698	  0.1808	 14.1962	  14.196	  84.945
 1701	  0.1812	 14.2212	  14.221	  85.095
 1704	  0.1812	 14.2463	  14.246	  85.245
 1707	  0.1808	 14.2712	  14.271	  85.395
 1710	  0.1812	 14.2962	  14.296	  85.545
 1713	  0.1808	 14.3212	  14.321	  85.695
 1716	  0.1804	 14.3462	  14.346	  85.845
 1719	  0.1808	 14.3713	  14.371	  85.995
 1722	  0.1800	 14.3962	  14.396	  86.145
 1725	  0.1812	 14.4225	  14.422	  86.295
 1728	  0.1812	 14.4475	  14.447	  86.445
 1731	  0.1804	 14.4725	  14.472	  86.595
 1734	  0.1804	 14.4975	  14.497	  86.745
 1737	  0.1816	 14.5225	  14.523	  86.895
 1740	  0.1812	 14.5475	  14.547	  87.045
 1743	  0.1816	 14.5725	  14.572	  87.195
 1746	  0.1820	 14.5975	  14.597	  87.345
 1749	  0.1808	 14.6225	  14.622	  87.495
 1752	  0.1816	 14.6475	  14.648	  87.645
 1755	  0.1820	 14.6725	  14.672	  87.795
 1758	  0.1820	 14.6987	  14.699	  87.945
 1761	  0.1824	 14.7238	  14.724	  88.095
 1764	  0.1824	 14.7487	  14.749	  88.245
 1767	  0.1828	 14.7737	  14.774	  88.395
 1770	  0.1836	 14.7987	  14.799	  88.545
 1773	  0.1824	 14.8237	  14.824	  88.695
 1776	  0.1832	 14.8488	  14.849	  88.845
 1779	  0.1832	 14.8737	  14.874	  88.995
 1782	  0.1836	 14.8987	  14.899	  89.145
 1785	  0.1840	 14.9250	  14.925	  89.295
 1788	  0.1832	 14.9500	  14.950	  89.445
 1791	  0.1840	 14.9750	  14.975	  89.595
 1794	  0.1844	 15.0000	  15.000	  89.745
 1797	  0.1840	 15.0250	  15.025	  89.895
 1800	  0.1840	 15.0500	  15.050	  90.045
 1803	  0.1840	 15.0750	  15.075	  90.195
 1806	  0.1844	 15.1000	  15.100	  90.345
 1809	  0.1848	 15.1250	  15.125	  90.495
 1812	  0.1844	 15.1500	  15.150	  90.645
 1815	  0.1844	 15.1750	  15.175	  90.795
 1818	  0.1848	 15.2013	  15.201	  90.945
 1821	  0.1852	 15.2262	  15.226	  91.095
 1824	  0.1844	 15.2512	  15.251	  91.245
 1827	  0.1852	 15.2762	  15.276	  91.395
 1830	  0.1852	 15.3012	  15.301	  91.545
 1833	  0.1848	 15.3263	  15.326	  91.695
 1836	  0.1852	 15.3512	  15.351	  91.845
 1839	  0.1856	 15.3762	  15.376	  91.995
 1842	  0.1860	 15.4012	  15.401	  92.145
 1845	  0.1852	 15.4262	  15.426	  92.295
 1848	  0.1856	 15.4525	  15.452	  92.445
 1851	  0.1860	 15.4775	  15.477	  92.595
 1854	  0.1872	 15.5025	  15.502	  92.745
 1857	  0.1872	 15.5275	  15.527	  92.895
 1860	  0.1872	 15.5525	  15.552	  93.045
 1863	  0.1872	 15.5775	  15.577	  93.195
 1866	  0.1876	 15.6025	  15.602	  93.345
 1869	  0.1876	 15.6275	  15.627	  93.495
 1872	  0.1872	 15.6525	  15.652	  93.645
 1875	  0.1872	 15.6775	  15.677	  93.795
 1878	  0.1876	 15.7025	  15.702	  93.945
 1881	  0.1872	 15.7275	  15.727	  94.095
 1884	  0.1868	 15.7537	  15.754	  94.245
 1887	  0.1876	 15.7787	  15.779	  94.395
 1890	  0.1884	 15.8038	  15.804	  94.545
 1893	  0.1880	 15.8287	  15.829	  94.695
 1896	  0.1880	 15.8537	  15.854	  94.845
 1899	  0.1884	 15.8787	  15.879	  94.995
 1902	  0.1888	 15.9037	  15.904	  95.145
 1905	  0.1876	 15.9288	  15.929	  95.295
 1908	  0.1884	 15.9537	  15.954	  95.445
 1911	  0.1880	 15.9787	  15.979	  95.595
 1914	  0.1892	 16.0037	  16.004	  95.745
 1917	  0.1880	 16.0287	  16.029	  95.895
 1920	  0.1888	 16.0537	  16.054	  96.045
 1923	  0.1888	 16.0787	  16.079	  96.195
 1926	  0.1896	 16.1038	  16.104	  96.345
 1929	  0.1888	 16.1287	  16.129	  96.495
 1932	  0.1896	 16.1537	  16.154	  96.645
 1935	  0.1896	 16.1800	  16.180	  96.795
 1938	  0.1888	 16.2050	  16.205	  96.945
 1941	  0.1892	 16.2300	  16.230	  97.095
 1944	  0.1896	 16.2550	  16.255	  97.245
 1947	  0.1908	 16.2800	  16.280	  97.395
 1950	  0.1900	 16.3050	  16.305	  97.545
 1953	  0.1896	 16.3300	  16.330	  97.695
 1956	  0.1900	 16.3550	  16.355	  97.845
 1959	  0.1900	 16.3800	  16.380	  97.995
 1962	  0.1904	 16.4050	  16.405	  98.145
 1965	  0.1904	 16.4300	  16.430	  98.295
 1968	  0.1900	 16.4550	  16.455	  98.445
 1971	  0.1900	 16.4800	  16.480	  98.595
 1974	  0.1912	 16.5050	  16.505	  98.745
 1977	  0.1908	 16.5300	  16.530	  98.895
 1980	  0.1912	 16.5550	  16.555	  99.045
 1983	  0.1912	 16.5800	  16.580	  99.195
 1986	  0.1916	 16.6050	  16.605	  99.345
 1989	  0.1920	 16.6300	  16.630	  99.495
 1992	  0.1920	 16.6550	  16.655	  99.645
 1995	  0.1920	 16.6800	  16.680	  99.795
 1998	  0.1920	 16.7050	  16.705	  99.945
 2001	  0.1924	 16.7300	  16.730	 100.095
 2004	  0.1916	 16.7550	  16.755	 100.245
 2007	  0.1928	 16.7800	  16.780	 100.395
 2010	  0.1924	 16.8050	  16.805	 100.545
 2013	  0.1928	 16.8300	  16.830	 100.695
 2016	  0.1924	 16.8550	  16.855	 100.845
 2019	  0.1932	 16.8800	  16.880	 100.995
 2022	  0.1928	 16.9050	  16.905	 101.145
 2025	  0.1924	 16.9300	  16.930	 101.295
 2028	  0.1928	 16.9550	  16.955	 101.445
 2031	  0.1932	 16.9800	  16.980	 101.595
 2034	  0.1928	 17.0050	  17.005	 101.745
 2037	  0.1932	 17.0300	  17.030	 101.895
 2040	  0.1928	 17.0550	  17.055	 102.045
 2043	  0.1936	 17.0800	  17.080	 102.195
 2046	  0.1940	 17.1050	  17.105	 102.345
 2049	  0.1932	 17.1300	  17.130	 102.495
 2052	  0.1936	 17.1550	  17.155	 102.645
 2055	  0.1932	 17.1800	  17.180	 102.795
 2058	  0.1928	 17.2050	  17.205	 102.945
 2061	  0.1936	 17.2300	  17.230	 103.095
 2064	  0.1940	 17.2550	  17.255	 103.245
 2067	  0.1948	 17.2800	  17.280	 103.395
 2070	  0.1940	 17.3050	  17.305	 103.545
 2073	  0.1944	 17.3300	  17.330	 103.695
 2076	  0.1944	 17.3550	  17.355	 103.845
 2079	  0.1948	 17.3800	  17.380	 103.995
 2082	  0.1956	 17.4050	  17.405	 104.145
 2085	  0.1940	 17.4300	  17.430	 104.295
 2088	  0.1944	 17.4550	  17.455	 104.445
 2091	  0.1944	 17.4800	  17.480	 104.595
 2094	  0.1944	 17.5050	  17.505	 104.745
 2097	  0.1956	 17.5300	  17.530	 104.895
 2100	  0.1948	 17.5550	  17.555	 105.045
 2103	  0.1952	 17.5800	  17.580	 105.195
 2106	  0.1952	 17.6050	  17.605	 105.345
 2109	  0.1952	 17.6300	  17.630	 105.495
 2112	  0.1960	 17.6550	  17.655	 105.645
 2115	  0.1960	 17.6800	  17.680	 105.795
 2118	  0.1964	 17.7050	  17.705	 105.945
 2121	  0.1960	 17.7300	  17.730	 106.095
 2124	  0.1956	 17.7550	  17.755	 106.245
 2127	  0.1964	 17.7800	  17.780	 106.395
 2130	  0.1964	 17.8050	  17.805	 106.545
 2133	  0.1972	 17.8312	  17.831	 106.695
 2136	  0.1968	 17.8562	  17.856	 106.845
 2139	  0.1964	 17.8813	  17.881	 106.995
 2142	  0.1956	 17.9062	  17.906	 107.145
 2145	  0.1968	 17.9312	  17.931	 107.295
 2148	  0.1964	 17.9562	  17.956	 107.445
 2151	  0.1972	 17.9812	  17.981	 107.595
 2154	  0.1964	 18.0063	  18.006	 107.745
 2157	  0.1960	 18.0312	  18.031	 107.895
 2160	  0.1976	 18.0562	  18.056	 108.045
 2163	  0.1984	 18.0812	  18.081	 108.195
 2166	  0.1980	 18.1075	  18.108	 108.345
 2169	  0.1972	 18.1325	  18.132	 108.495
 2172	  0.1980	 18.1575	  18.157	 108.645
 2175	  0.1984	 18.1825	  18.182	 108.795
 2178	  0.1984	 18.2075	  18.208	 108.945
 2181	  0.1980	 18.2325	  18.233	 109.095
 2184	  0.1976	 18.2575	  18.257	 109.245
 2187	  0.1980	 18.2825	  18.282	 109.395
 2190	  0.1980	 18.3075	  18.307	 109.545
 2193	  0.1980	 18.3325	  18.333	 109.695
 2196	  0.1984	 18.3575	  18.358	 109.845
 2199	  0.1988	 18.3837	  18.384	 109.995
 2202	  0.1988	 18.4088	  18.409	 110.145
 2205	  0.2000	 18.4338	  18.434	 110.295
 2208	  0.1992	 18.4587	  18.459	 110.445
 2211	  0.1996	 18.4837	  18.484	 110.595
 2214	  0.2000	 18.5087	  18.509	 110.745
 2217	  0.1992	 18.5338	  18.534	 110.895
 2220	  0.1992	 18.5600	  18.560	 111.045
 2223	  0.1996	 18.5850	  18.585	 111.195
 2226	  0.1992	 18.6100	  18.610	 111.345
 2229	  0.1996	 18.6350	  18.635	 111.495
 2232	  0.1992	 18.6600	  18.660	 111.645
 2235	  0.2004	 18.6850	  18.685	 111.795
 2238	  0.2000	 18.7113	  18.711	 111.945
 2241	  0.2000	 18.7350	  18.735	 112.095
 2244	  0.2004	 18.7612	  18.761	 112.245
 2247	  0.2004	 18.7862	  18.786	 112.395
 2250	  0.2000	 18.8112	  18.811	 112.545
 2253	  0.2000	 18.8363	  18.836	 112.695
 2256	  0.1996	 18.8612	  18.861	 112.845
 2259	  0.2000	 18.8875	  18.887	 112.995
 2262	  0.2008	 18.9125	  18.913	 113.145
 2265	  0.2008	 18.9375	  18.938	 113.295
 2268	  0.2004	 18.9625	  18.962	 113.445
 2271	  0.2012	 18.9875	  18.987	 113.595
 2274	  0.2008	 19.0125	  19.012	 113.745
 2277	  0.2012	 19.0375	  19.038	 113.895
 2280	  0.2008	 19.0625	  19.062	 114.045
 2283	  0.2012	 19.0887	  19.089	 114.195
 2286	  0.2016	 19.1138	  19.114	 114.345
 2289	  0.2004	 19.1388	  19.139	 114.495
 2292	  0.2012	 19.1637	  19.164	 114.645
 2295	  0.2012	 19.1887	  19.189	 114.795
 2298	  0.2012	 19.2150	  19.215	 114.945
 2301	  0.2016	 19.2400	  19.240	 115.095
 2304	  0.2004	 19.2650	  19.265	 115.245
 2307	  0.2016	 19.2900	  19.290	 115.395
 2310	  0.2008	 19.3150	  19.315	 115.545
 2313	  0.2016	 19.3400	  19.340	 115.695
 2316	  0.2020	 19.3650	  19.365	 115.845
 2319	  0.2020	 19.3900	  19.390	 115.995
 2322	  0.2016	 19.4150	  19.415	 116.145
 2325	  0.2024	 19.4400	  19.440	 116.295
 2328	  0.2016	 19.4650	  19.465	 116.445
 2331	  0.2020	 19.4912	  19.491	 116.595
 2334	  0.2024	 19.5162	  19.516	 116.745
 2337	  0.2024	 19.5413	  19.541	 116.895
 2340	  0.2028	 19.5662	  19.566	 117.045
 2343	  0.2032	 19.5912	  19.591	 117.195
 2346	  0.2028	 19.6162	  19.616	 117.345
 2349	  0.2024	 19.6412	  19.641	 117.495
 2352	  0.2028	 19.6663	  19.666	 117.645
 2355	  0.2024	 19.6912	  19.691	 117.795
 2358	  0.2032	 19.7162	  19.716	 117.945
 2361	  0.2028	 19.7412	  19.741	 118.095
 2364	  0.2032	 19.7662	  19.766	 118.245
 2367	  0.2032	 19.7913	  19.791	 118.395
 2370	  0.2036	 19.8162	  19.816	 118.545
 2373	  0.2032	 19.8412	  19.841	 118.695
 2376	  0.2040	 19.8662	  19.866	 118.845
 2379	  0.2032	 19.8912	  19.891	 118.995
 2382	  0.2032	 19.9163	  19.916	 119.145
 2385	  0.2032	 19.9412	  19.941	 119.295
 2388	  0.2040	 19.9662	  19.966	 119.445
 2391	  0.2040	 19.9912	  19.991	 119.595
 2394	  0.2040	 20.0162	  20.016	 119.745
 2397	  0.2044	 20.0413	  20.041	 119.895
 2400	  0.2044	 20.0662	  20.066	 120.045
 2403	  0.2036	 20.0912	  20.091	 120.195
 2406	  0.2048	 20.1162	  20.116	 120.345
 2409	  0.2048	 20.1412	  20.141	 120.495
 2412	  0.2040	 20.1663	  20.166	 120.645
 2415	  0.2048	 20.1912	  20.191	 120.795
 2418	  0.2052	 20.2175	  20.217	 120.945
 2421	  0.2052	 20.2412	  20.241	 121.095
 2424	  0.2052	 20.2662	  20.266	 121.245
 2427	  0.2052	 20.2913	  20.291	 121.395
 2430	  0.2044	 20.3162	  20.316	 121.545
 2433	  0.2052	 20.3425	  20.342	 121.695
 2436	  0.2044	 20.3675	  20.368	 121.845
 2439	  0.2052	 20.3925	  20.392	 121.995
 2442	  0.2056	 20.4163	  20.416	 122.145
 2445	  0.2056	 20.4412	  20.441	 122.295
 2448	  0.2052	 20.4675	  20.467	 122.445
 2451	  0.2060	 20.4925	  20.493	 122.595
 2454	  0.2056	 20.5175	  20.517	 122.745
 2457	  0.2056	 20.5425	  20.542	 122.895
 2460	  0.2060	 20.5675	  20.567	 123.045
 2463	  0.2060	 20.5925	  20.592	 123.195
 2466	  0.2064	 20.6175	  20.618	 123.345
 2469	  0.2064	 20.6425	  20.642	 123.495
 2472	  0.2060	 20.6675	  20.667	 123.645
 2475	  0.2068	 20.6925	  20.692	 123.795
 2478	  0.2068	 20.7175	  20.717	 123.945
 2481	  0.2064	 20.7425	  20.743	 124.095
 2484	  0.2072	 20.7675	  20.767	 124.245
 2487	  0.2072	 20.7925	  20.792	 124.395
 2490	  0.2072	 20.8175	  20.817	 124.545
 2493	  0.2072	 20.8425	  20.842	 124.695
 2496	  0.2072	 20.8662	  20.866	 124.845
 2499	  0.2072	 20.8925	  20.892	 124.995
 2502	  0.2064	 20.9175	  20.917	 125.145
 2505	  0.2068	 20.9425	  20.942	 125.295
 2508	  0.2072	 20.9675	  20.967	 125.445
 2511	  0.2072	 20.9925	  20.993	 125.595
 2514	  0.2080	 21.0175	  21.017	 125.745
 2517	  0.2080	 21.0425	  21.042	 125.895
 2520	  0.2076	 21.0675	  21.067	 126.045
 2523	  0.2076	 21.0925	  21.092	 126.195
 2526	  0.2076	 21.1162	  21.116	 126.345
 2529	  0.2080	 21.1412	  21.141	 126.495
 2532	  0.2080	 21.1663	  21.166	 126.645
 2535	  0.2080	 21.1925	  21.192	 126.795
 2538	  0.2080	 21.2162	  21.216	 126.945
 2541	  0.2080	 21.2412	  21.241	 127.095
 2544	  0.2080	 21.2675	  21.267	 127.245
 2547	  0.2084	 21.2925	  21.292	 127.395
 2550	  0.2088	 21.3175	  21.317	 127.545
 2553	  0.2084	 21.3425	  21.342	 127.695
 2556	  0.2084	 21.3662	  21.366	 127.845
 2559	  0.2072	 21.3912	  21.391	 127.995
 2562	  0.2084	 21.4163	  21.416	 128.145
 2565	  0.2088	 21.4412	  21.441	 128.295
 2568	  0.2092	 21.4662	  21.466	 128.445
 2571	  0.2088	 21.4912	  21.491	 128.595
 2574	  0.2084	 21.5162	  21.516	 128.745
 2577	  0.2084	 21.5413	  21.541	 128.895
 2580	  0.2096	 21.5662	  21.566	 129.045
 2583	  0.2096	 21.5912	  21.591	 129.195
 2586	  0.2100	 21.6162	  21.616	 129.345
 2589	  0.2096	 21.6412	  21.641	 129.495
 2592	  0.2092	 21.6663	  21.666	 129.645
 2595	  0.2092	 21.6912	  21.691	 129.795
 2598	  0.2092	 21.7162	  21.716	 129.945
 2601	  0.2096	 21.7412	  21.741	 130.095
 2604	  0.2104	 21.7662	  21.766	 130.245
 2607	  0.2100	 21.7913	  21.791	 130.395
 2610	  0.2104	 21.8162	  21.816	 130.545
 2613	  0.2100	 21.8412	  21.841	 130.695
 2616	  0.2092	 21.8662	  21.866	 130.845
 2619	  0.2100	 21.8912	  21.891	 130.995
 2622	  0.2096	 21.9163	  21.916	 131.145
 2625	  0.2104	 21.9412	  21.941	 131.295
 2628	  0.2100	 21.9662	  21.966	 131.445
 2631	  0.2104	 21.9912	  21.991	 131.595
 2634	  0.2104	 22.0162	  22.016	 131.745
 2637	  0.2104	 22.0413	  22.041	 131.895
 2640	  0.2100	 22.0662	  22.066	 132.045
 2643	  0.2104	 22.0912	  22.091	 132.195
 2646	  0.2108	 22.1162	  22.116	 132.345
 2649	  0.2104	 22.1412	  22.141	 132.495
 2652	  0.2108	 22.1663	  22.166	 132.645
 2655	  0.2108	 22.1912	  22.191	 132.795
 2658	  0.2116	 22.2162	  22.216	 132.945
 2661	  0.2108	 22.2425	  22.243	 133.095
 2664	  0.2112	 22.2675	  22.267	 133.245
 2667	  0.2112	 22.2925	  22.292	 133.395
 2670	  0.2112	 22.3175	  22.317	 133.545
 2673	  0.2108	 22.3425	  22.342	 133.695
 2676	  0.2112	 22.3675	  22.368	 133.845
 2679	  0.2120	 22.3925	  22.392	 133.995
 2682	  0.2116	 22.4175	  22.417	 134.145
 2685	  0.2108	 22.4425	  22.442	 134.295
 2688	  0.2112	 22.4688	  22.469	 134.445
 2691	  0.2108	 22.4937	  22.494	 134.595
 2694	  0.2124	 22.5187	  22.519	 134.745
 2697	  0.2116	 22.5437	  22.544	 134.895
 2700	  0.2124	 22.5688	  22.569	 135.045
 2703	  0.2120	 22.5938	  22.594	 135.195
 2706	  0.2128	 22.6187	  22.619	 135.345
 2709	  0.2120	 22.6437	  22.644	 135.495
 2712	  0.2128	 22.6687	  22.669	 135.645
 2715	  0.2124	 22.6938	  22.694	 135.795
 2718	  0.2124	 22.7188	  22.719	 135.945
 2721	  0.2124	 22.7437	  22.744	 136.095
 2724	  0.2124	 22.7687	  22.769	 136.245
 2727	  0.2124	 22.7950	  22.795	 136.395
 2730	  0.2132	 22.8200	  22.820	 136.545
 2733	  0.2132	 22.8450	  22.845	 136.695
 2736	  0.2128	 22.8700	  22.870	 136.845
 2739	  0.2128	 22.8950	  22.895	 136.995
 2742	  0.2132	 22.9200	  22.920	 137.145
 2745	  0.2132	 22.9450	  22.945	 137.295
 2748	  0.2136	 22.9712	  22.971	 137.445
 2751	  0.2136	 22.9963	  22.996	 137.595
 2754	  0.2136	 23.0212	  23.021	 137.745
 2757	  0.2140	 23.0462	  23.046	 137.895
 2760	  0.2140	 23.0712	  23.071	 138.045
 2763	  0.2132	 23.0962	  23.096	 138.195
 2766	  0.2132	 23.1213	  23.121	 138.345
 2769	  0.2132	 23.1475	  23.147	 138.495
 2772	  0.2132	 23.1725	  23.172	 138.645
 2775	  0.2136	 23.1975	  23.198	 138.795
 2778	  0.2140	 23.2225	  23.222	 138.945
 2781	  0.2140	 23.2475	  23.247	 139.095
 2784	  0.2144	 23.2725	  23.272	 139.245
 2787	  0.2136	 23.2975	  23.297	 139.395
 2790	  0.2140	 23.3225	  23.323	 139.545
 2793	  0.2144	 23.3475	  23.347	 139.695
 2796	  0.2132	 23.3725	  23.372	 139.845
 2799	  0.2136	 23.3988	  23.399	 139.995
 2802	  0.2144	 23.4237	  23.424	 140.145
 2805	  0.2148	 23.4487	  23.449	 140.295
 2808	  0.2148	 23.4737	  23.474	 140.445
 2811	  0.2148	 23.4987	  23.499	 140.595
 2814	  0.2148	 23.5238	  23.524	 140.745
 2817	  0.2140	 23.5487	  23.549	 140.895
 2820	  0.2144	 23.5737	  23.574	 141.045
 2823	  0.2152	 23.5987	  23.599	 141.195
 2826	  0.2140	 23.6237	  23.624	 141.345
 2829	  0.2144	 23.6488	  23.649	 141.495
 2832	  0.2144	 23.6737	  23.674	 141.645
 2835	  0.2152	 23.6987	  23.699	 141.795
 2838	  0.2152	 23.7237	  23.724	 141.945
 2841	  0.2152	 23.7487	  23.749	 142.095
 2844	  0.2152	 23.7738	  23.774	 142.245
 2847	  0.2152	 23.7987	  23.799	 142.395
 2850	  0.2164	 23.8250	  23.825	 142.545
 2853	  0.2156	 23.8500	  23.850	 142.695
 2856	  0.2164	 23.8750	  23.875	 142.845
 2859	  0.2152	 23.9000	  23.900	 142.995
 2862	  0.2168	 23.9250	  23.925	 143.145
 2865	  0.2164	 23.9500	  23.950	 143.295
 2868	  0.2164	 23.9750	  23.975	 143.445
 2871	  0.2160	 24.0000	  24.000	 143.595
 2874	  0.2160	 24.0250	  24.025	 143.745
 2877	  0.2164	 24.0500	  24.050	 143.895
 2880	  0.2156	 24.0750	  24.075	 144.045
 2883	  0.2160	 24.1012	  24.101	 144.195
 2886	  0.2160	 24.1262	  24.126	 144.345
 2889	  0.2156	 24.1512	  24.151	 144.495
 2892	  0.2164	 24.1762	  24.176	 144.645
 2895	  0.2168	 24.2013	  24.201	 144.795
 2898	  0.2164	 24.2262	  24.226	 144.945
 2901	  0.2168	 24.2512	  24.251	 145.095
 2904	  0.2164	 24.2762	  24.276	 145.245
 2907	  0.2164	 24.3012	  24.301	 145.395
 2910	  0.2168	 24.3263	  24.326	 145.545
 2913	  0.2176	 24.3512	  24.351	 145.695
 2916	  0.2172	 24.3762	  24.376	 145.845
 2919	  0.2180	 24.4012	  24.401	 145.995
 2922	  0.2176	 24.4262	  24.426	 146.145
 2925	  0.2172	 24.4513	  24.451	 146.295
 2928	  0.2176	 24.4762	  24.476	 146.445
 2931	  0.2172	 24.5012	  24.501	 146.595
 2934	  0.2172	 24.5262	  24.526	 146.745
 2937	  0.2168	 24.5512	  24.551	 146.895
 2940	  0.2172	 24.5763	  24.576	 147.045
 2943	  0.2176	 24.6012	  24.601	 147.195
 2946	  0.2168	 24.6262	  24.626	 147.345
 2949	  0.2164	 24.6512	  24.651	 147.495
 2952	  0.2172	 24.6762	  24.676	 147.645
 2955	  0.2168	 24.7013	  24.701	 147.795
 2958	  0.2172	 24.7262	  24.726	 147.945
 2961	  0.2168	 24.7512	  24.751	 148.095
 2964	  0.2180	 24.7762	  24.776	 148.245
 2967	  0.2172	 24.8012	  24.801	 148.395
 2970	  0.2184	 24.8263	  24.826	 148.545
 2973	  0.2180	 24.8512	  24.851	 148.695
 2976	  0.2180	 24.8762	  24.876	 148.845
 2979	  0.2176	 24.9012	  24.901	 148.995
 2982	  0.2176	 24.9262	  24.926	 149.145
 2985	  0.2172	 24.9513	  24.951	 149.295
 2988	  0.2172	 24.9762	  24.976	 149.445
 2991	  0.2176	 25.0012	  25.001	 149.595
 2994	  0.2176	 25.0262	  25.026	 149.745
 2997	  0.2168	 25.0512	  25.051	 149.895
 3000	  0.2180	 25.0763	  25.076	 150.045
 3003	  0.2168	 25.1012	  25.101	 150.195
 3006	  0.2176	 25.1262	  25.126	 150.345
 3009	  0.2176	 25.1512	  25.151	 150.495
 3012	  0.2176	 25.1737	  25.174	 150.645
 3015	  0.2176	 25.1987	  25.199	 150.795
 3018	  0.2172	 25.2237	  25.224	 150.945
 3021	  0.2176	 25.2487	  25.249	 151.095
 3024	  0.2176	 25.2738	  25.274	 151.245
 3027	  0.2176	 25.2987	  25.299	 151.395
 3030	  0.2176	 25.3237	  25.324	 151.545
 3033	  0.2180	 25.3500	  25.350	 151.695
 3036	  0.2180	 25.3737	  25.374	 151.845
 3039	  0.2172	 25.3988	  25.399	 151.995
 3042	  0.2172	 25.4237	  25.424	 152.145
 3045	  0.2168	 25.4487	  25.449	 152.295
 3048	  0.2172	 25.4750	  25.475	 152.445
 3051	  0.2164	 25.5000	  25.500	 152.595
 3054	  0.2180	 25.5250	  25.525	 152.745
 3057	  0.2180	 25.5487	  25.549	 152.895
 3060	  0.2172	 25.5750	  25.575	 153.045
 3063	  0.2168	 25.6000	  25.600	 153.195
 3066	  0.2152	 25.6250	  25.625	 153.345
 3069	  0.0000	 25.6500	  25.650	 153.495
 3072	  0.0008	 25.6750	  25.675	 153.645
 3075	  0.0004	 25.7000	  25.700	 153.795
 3078	  0.0004	 25.7250	  25.725	 153.945
 3081	  0.0008	 25.7500	  25.750	 154.095
 3084	  0.0004	 25.7750	  25.775	 154.245
 3087	  0.0000	 25.7987	  25.799	 154.395
 3090	  0.0004	 25.8237	  25.824	 154.545
 3093	  0.0008	 25.8487	  25.849	 154.695
 3096	  0.0008	 25.8737	  25.874	 154.845
 3099	  0.0008	 25.8988	  25.899	 154.995
 3102	  0.0008	 25.9237	  25.924	 155.145
 3105	  0.0004	 25.9487	  25.949	 155.295
 3108	  0.0000	 25.9737	  25.974	 155.445
 3111	  0.0004	 25.9987	  25.999	 155.595
 3114	  0.0008	 26.0238	  26.024	 155.745
 3116	  0.0004	 26.0413	  26.041	 155.845
ControlMode:	0
Rate:	 10.0000
(null)
4
step	1
0
5.000000
0.000000
1
1
0.500000
2
step	2
1
5.000000
0.000000
1
1
2.000000
3
step	3
5
2.000000
0.000000
1
0
30
4
step	4
8
0.000000
0.000000
0
0
0.000000
0
2