File: Dados - Tração/P2-lacre guinner 01.txt
0
Diameter:	   5.00
   1.00
Area:	  19.6350
GaugeLength:	  50.00
2009-1-1
A3
001
DataNumber:	5987
index	Load(kN)	Defor(mm)	Stroke(mm)	Time(s)
    0	  0.0096	  0.0088	   0.009	   0.045
    6	  0.0096	  0.0575	   0.057	   0.345
   12	  0.0100	  0.1088	   0.109	   0.645
   18	  0.0104	  0.1575	   0.157	   0.945
   24	  0.0104	  0.2075	   0.207	   1.245
   30	  0.0104	  0.2587	   0.259	   1.545
   36	  0.0100	  0.3088	   0.309	   1.845
   42	  0.0100	  0.3575	   0.357	   2.145
   48	  0.0100	  0.4087	   0.409	   2.445
   54	  0.0100	  0.4575	   0.457	   2.745
   60	  0.0104	  0.5075	   0.507	   3.045
   66	  0.0104	  0.5587	   0.559	   3.345
   72	  0.0116	  0.6087	   0.609	   3.645
   78	  0.0112	  0.6587	   0.659	   3.945
   84	  0.0116	  0.7088	   0.709	   4.245
   90	  0.0124	  0.7587	   0.759	   4.545
   96	  0.0124	  0.8087	   0.809	   4.845
  102	  0.0120	  0.8587	   0.859	   5.145
  108	  0.0124	  0.9087	   0.909	   5.445
  114	  0.0132	  0.9600	   0.960	   5.745
  120	  0.0132	  1.0100	   1.010	   6.045
  126	  0.0124	  1.0600	   1.060	   6.345
  132	  0.0136	  1.1100	   1.110	   6.645
  138	  0.0144	  1.1600	   1.160	   6.945
  144	  0.0144	  1.2100	   1.210	   7.245
  150	  0.0148	  1.2600	   1.260	   7.545
  156	  0.0148	  1.3100	   1.310	   7.845
  162	  0.0148	  1.3612	   1.361	   8.145
  168	  0.0156	  1.4112	   1.411	   8.445
  174	  0.0164	  1.4612	   1.461	   8.745
  180	  0.0156	  1.5113	   1.511	   9.045
  186	  0.0164	  1.5612	   1.561	   9.345
  192	  0.0164	  1.6112	   1.611	   9.645
  198	  0.0164	  1.6625	   1.662	   9.945
  204	  0.0168	  1.7125	   1.712	  10.245
  210	  0.0164	  1.7625	   1.762	  10.545
  216	  0.0184	  1.8125	   1.812	  10.845
  222	  0.0196	  1.8625	   1.862	  11.145
  228	  0.0180	  1.9137	   1.914	  11.445
  234	  0.0188	  1.9638	   1.964	  11.745
  240	  0.0192	  2.0137	   2.014	  12.045
  246	  0.0196	  2.0638	   2.064	  12.345
  252	  0.0200	  2.1137	   2.114	  12.645
  258	  0.0212	  2.1650	   2.165	  12.945
  264	  0.0220	  2.2150	   2.215	  13.245
  270	  0.0208	  2.2650	   2.265	  13.545
  276	  0.0212	  2.3150	   2.315	  13.845
  282	  0.0220	  2.3650	   2.365	  14.145
  288	  0.0228	  2.4150	   2.415	  14.445
  294	  0.0236	  2.4650	   2.465	  14.745
  300	  0.0236	  2.5150	   2.515	  15.045
  306	  0.0244	  2.5650	   2.565	  15.345
  312	  0.0244	  2.6150	   2.615	  15.645
  318	  0.0252	  2.6662	   2.666	  15.945
  324	  0.0252	  2.7162	   2.716	  16.245
  330	  0.0260	  2.7662	   2.766	  16.545
  336	  0.0272	  2.8162	   2.816	  16.845
  342	  0.0276	  2.8675	   2.867	  17.145
  348	  0.0276	  2.9175	   2.918	  17.445
  354	  0.0276	  2.9675	   2.967	  17.745
  360	  0.0292	  3.0187	   3.019	  18.045
  366	  0.0300	  3.0687	   3.069	  18.345
  372	  0.0308	  3.1187	   3.119	  18.645
  378	  0.0304	  3.1700	   3.170	  18.945
  384	  0.0312	  3.2200	   3.220	  19.245
  390	  0.0328	  3.2700	   3.270	  19.545
  396	  0.0328	  3.3200	   3.320	  19.845
  402	  0.0332	  3.3700	   3.370	  20.145
  408	  0.0340	  3.4200	   3.420	  20.445
  414	  0.0340	  3.4712	   3.471	  20.745
  420	  0.0352	  3.5200	   3.520	  21.045
  426	  0.0364	  3.5700	   3.570	  21.345
  432	  0.0372	  3.6200	   3.620	  21.645
  438	  0.0376	  3.6700	   3.670	  21.945
  444	  0.0388	  3.7200	   3.720	  22.245
  450	  0.0392	  3.7713	   3.771	  22.545
  456	  0.0400	  3.8200	   3.820	  22.845
  462	  0.0412	  3.8700	   3.870	  23.145
  468	  0.0420	  3.9200	   3.920	  23.445
  474	  0.0424	  3.9700	   3.970	  23.745
  480	  0.0428	  4.0200	   4.020	  24.045
  486	  0.0444	  4.0700	   4.070	  24.345
  492	  0.0448	  4.1200	   4.120	  24.645
  498	  0.0456	  4.1700	   4.170	  24.945
  504	  0.0468	  4.2200	   4.220	  25.245
  510	  0.0472	  4.2700	   4.270	  25.545
  516	  0.0476	  4.3200	   4.320	  25.845
  522	  0.0488	  4.3700	   4.370	  26.145
  528	  0.0484	  4.4200	   4.420	  26.445
  534	  0.0508	  4.4700	   4.470	  26.745
  540	  0.0520	  4.5200	   4.520	  27.045
  546	  0.0524	  4.5700	   4.570	  27.345
  552	  0.0528	  4.6200	   4.620	  27.645
  558	  0.0540	  4.6700	   4.670	  27.945
  564	  0.0556	  4.7200	   4.720	  28.245
  570	  0.0560	  4.7700	   4.770	  28.545
  576	  0.0572	  4.8200	   4.820	  28.845
  582	  0.0580	  4.8700	   4.870	  29.145
  588	  0.0588	  4.9200	   4.920	  29.445
  594	  0.0592	  4.9700	   4.970	  29.745
  600	  0.0604	  5.0200	   5.020	  30.045
  606	  0.0616	  5.0700	   5.070	  30.345
  612	  0.0624	  5.1212	   5.121	  30.645
  618	  0.0636	  5.1712	   5.171	  30.945
  624	  0.0644	  5.2213	   5.221	  31.245
  630	  0.0656	  5.2700	   5.270	  31.545
  636	  0.0668	  5.3200	   5.320	  31.845
  642	  0.0676	  5.3700	   5.370	  32.145
  648	  0.0696	  5.4200	   5.420	  32.445
  654	  0.0700	  5.4700	   5.470	  32.745
  660	  0.0712	  5.5212	   5.521	  33.045
  666	  0.0728	  5.5712	   5.571	  33.345
  672	  0.0740	  5.6212	   5.621	  33.645
  678	  0.0756	  5.6712	   5.671	  33.945
  684	  0.0764	  5.7213	   5.721	  34.245
  690	  0.0780	  5.7712	   5.771	  34.545
  696	  0.0784	  5.8225	   5.822	  34.845
  702	  0.0796	  5.8725	   5.872	  35.145
  708	  0.0804	  5.9212	   5.921	  35.445
  714	  0.0820	  5.9713	   5.971	  35.745
  720	  0.0836	  6.0212	   6.021	  36.045
  726	  0.0840	  6.0725	   6.072	  36.345
  732	  0.0852	  6.1225	   6.122	  36.645
  738	  0.0864	  6.1725	   6.172	  36.945
  744	  0.0888	  6.2225	   6.222	  37.245
  750	  0.0888	  6.2737	   6.274	  37.545
  756	  0.0900	  6.3238	   6.324	  37.845
  762	  0.0916	  6.3737	   6.374	  38.145
  768	  0.0924	  6.4237	   6.424	  38.445
  774	  0.0940	  6.4737	   6.474	  38.745
  780	  0.0952	  6.5250	   6.525	  39.045
  786	  0.0972	  6.5750	   6.575	  39.345
  792	  0.0980	  6.6250	   6.625	  39.645
  798	  0.0988	  6.6750	   6.675	  39.945
  804	  0.0996	  6.7250	   6.725	  40.245
  810	  0.1012	  6.7762	   6.776	  40.545
  816	  0.1032	  6.8263	   6.826	  40.845
  822	  0.1048	  6.8762	   6.876	  41.145
  828	  0.1060	  6.9262	   6.926	  41.445
  834	  0.1068	  6.9762	   6.976	  41.745
  840	  0.1080	  7.0262	   7.026	  42.045
  846	  0.0960	  7.0775	   7.077	  42.345
  852	  0.0984	  7.1275	   7.128	  42.645
  858	  0.1000	  7.1775	   7.177	  42.945
  864	  0.1020	  7.2275	   7.227	  43.245
  870	  0.1044	  7.2775	   7.277	  43.545
  876	  0.1052	  7.3275	   7.327	  43.845
  882	  0.1076	  7.3775	   7.378	  44.145
  888	  0.1076	  7.4275	   7.427	  44.445
  894	  0.1088	  7.4775	   7.477	  44.745
  900	  0.1104	  7.5287	   7.529	  45.045
  906	  0.1112	  7.5762	   7.576	  45.345
  912	  0.1128	  7.6262	   7.626	  45.645
  918	  0.1152	  7.6762	   7.676	  45.945
  924	  0.1164	  7.7262	   7.726	  46.245
  930	  0.1176	  7.7762	   7.776	  46.545
  936	  0.1188	  7.8262	   7.826	  46.845
  942	  0.1208	  7.8775	   7.878	  47.145
  948	  0.1228	  7.9275	   7.927	  47.445
  954	  0.1232	  7.9762	   7.976	  47.745
  960	  0.1244	  8.0275	   8.028	  48.045
  966	  0.1264	  8.0775	   8.077	  48.345
  972	  0.1268	  8.1275	   8.127	  48.645
  978	  0.1288	  8.1775	   8.177	  48.945
  984	  0.1300	  8.2275	   8.227	  49.245
  990	  0.1320	  8.2775	   8.278	  49.545
  996	  0.1324	  8.3275	   8.327	  49.845
 1002	  0.1340	  8.3775	   8.377	  50.145
 1008	  0.1360	  8.4275	   8.427	  50.445
 1014	  0.1368	  8.4775	   8.477	  50.745
 1020	  0.1384	  8.5275	   8.528	  51.045
 1026	  0.1388	  8.5775	   8.577	  51.345
 1032	  0.1408	  8.6275	   8.627	  51.645
 1038	  0.1416	  8.6775	   8.677	  51.945
 1044	  0.1428	  8.7275	   8.727	  52.245
 1050	  0.1436	  8.7775	   8.778	  52.545
 1056	  0.1456	  8.8275	   8.827	  52.845
 1062	  0.1468	  8.8787	   8.879	  53.145
 1068	  0.1476	  8.9288	   8.929	  53.445
 1074	  0.1492	  8.9788	   8.979	  53.745
 1080	  0.1504	  9.0287	   9.029	  54.045
 1086	  0.1516	  9.0787	   9.079	  54.345
 1092	  0.1532	  9.1287	   9.129	  54.645
 1098	  0.1540	  9.1800	   9.180	  54.945
 1104	  0.1552	  9.2288	   9.229	  55.245
 1110	  0.1568	  9.2800	   9.280	  55.545
 1116	  0.1572	  9.3300	   9.330	  55.845
 1122	  0.1588	  9.3800	   9.380	  56.145
 1128	  0.1596	  9.4300	   9.430	  56.445
 1134	  0.1612	  9.4800	   9.480	  56.745
 1140	  0.1628	  9.5312	   9.531	  57.045
 1146	  0.1636	  9.5813	   9.581	  57.345
 1152	  0.1644	  9.6312	   9.631	  57.645
 1158	  0.1660	  9.6812	   9.681	  57.945
 1164	  0.1668	  9.7312	   9.731	  58.245
 1170	  0.1676	  9.7825	   9.782	  58.545
 1176	  0.1684	  9.8325	   9.832	  58.845
 1182	  0.1704	  9.8825	   9.882	  59.145
 1188	  0.1712	  9.9325	   9.932	  59.445
 1194	  0.1732	  9.9837	   9.984	  59.745
 1200	  0.1740	 10.0337	  10.034	  60.045
 1206	  0.1748	 10.0837	  10.084	  60.345
 1212	  0.1756	 10.1337	  10.134	  60.645
 1218	  0.1768	 10.1850	  10.185	  60.945
 1224	  0.1780	 10.2350	  10.235	  61.245
 1230	  0.1800	 10.2850	  10.285	  61.545
 1236	  0.1808	 10.3350	  10.335	  61.845
 1242	  0.1828	 10.3862	  10.386	  62.145
 1248	  0.1832	 10.4362	  10.436	  62.445
 1254	  0.1852	 10.4862	  10.486	  62.745
 1260	  0.1856	 10.5363	  10.536	  63.045
 1266	  0.1868	 10.5862	  10.586	  63.345
 1272	  0.1884	 10.6362	  10.636	  63.645
 1278	  0.1892	 10.6875	  10.688	  63.945
 1284	  0.1896	 10.7375	  10.738	  64.245
 1290	  0.1904	 10.7875	  10.787	  64.545
 1296	  0.1920	 10.8375	  10.837	  64.845
 1302	  0.1936	 10.8875	  10.887	  65.145
 1308	  0.1948	 10.9387	  10.939	  65.445
 1314	  0.1960	 10.9887	  10.989	  65.745
 1320	  0.1968	 11.0387	  11.039	  66.045
 1326	  0.1976	 11.0887	  11.089	  66.345
 1332	  0.1984	 11.1388	  11.139	  66.645
 1338	  0.1984	 11.1900	  11.190	  66.945
 1344	  0.2004	 11.2400	  11.240	  67.245
 1350	  0.2016	 11.2900	  11.290	  67.545
 1356	  0.2032	 11.3400	  11.340	  67.845
 1362	  0.2040	 11.3900	  11.390	  68.145
 1368	  0.2044	 11.4400	  11.440	  68.445
 1374	  0.2060	 11.4900	  11.490	  68.745
 1380	  0.2064	 11.5412	  11.541	  69.045
 1386	  0.2072	 11.5912	  11.591	  69.345
 1392	  0.2088	 11.6412	  11.641	  69.645
 1398	  0.2096	 11.6900	  11.690	  69.945
 1404	  0.2108	 11.7400	  11.740	  70.245
 1410	  0.2120	 11.7912	  11.791	  70.545
 1416	  0.2128	 11.8400	  11.840	  70.845
 1422	  0.2136	 11.8900	  11.890	  71.145
 1428	  0.2148	 11.9400	  11.940	  71.445
 1434	  0.2160	 11.9900	  11.990	  71.745
 1440	  0.2168	 12.0400	  12.040	  72.045
 1446	  0.2188	 12.0900	  12.090	  72.345
 1452	  0.2192	 12.1400	  12.140	  72.645
 1458	  0.2200	 12.1900	  12.190	  72.945
 1464	  0.2208	 12.2400	  12.240	  73.245
 1470	  0.2220	 12.2900	  12.290	  73.545
 1476	  0.2220	 12.3400	  12.340	  73.845
 1482	  0.2232	 12.3900	  12.390	  74.145
 1488	  0.2240	 12.4387	  12.439	  74.445
 1494	  0.2244	 12.4900	  12.490	  74.745
 1500	  0.2256	 12.5400	  12.540	  75.045
 1506	  0.2268	 12.5900	  12.590	  75.345
 1512	  0.2272	 12.6388	  12.639	  75.645
 1518	  0.2288	 12.6887	  12.689	  75.945
 1524	  0.2288	 12.7387	  12.739	  76.245
 1530	  0.2300	 12.7900	  12.790	  76.545
 1536	  0.2300	 12.8400	  12.840	  76.845
 1542	  0.2308	 12.8900	  12.890	  77.145
 1548	  0.2312	 12.9400	  12.940	  77.445
 1554	  0.2328	 12.9900	  12.990	  77.745
 1560	  0.2336	 13.0412	  13.041	  78.045
 1566	  0.2336	 13.0912	  13.091	  78.345
 1572	  0.2348	 13.1412	  13.141	  78.645
 1578	  0.2356	 13.1912	  13.191	  78.945
 1584	  0.2368	 13.2413	  13.241	  79.245
 1590	  0.2376	 13.2925	  13.292	  79.545
 1596	  0.2388	 13.3425	  13.342	  79.845
 1602	  0.2396	 13.3925	  13.392	  80.145
 1608	  0.2412	 13.4425	  13.443	  80.445
 1614	  0.2412	 13.4925	  13.492	  80.745
 1620	  0.2420	 13.5437	  13.544	  81.045
 1626	  0.2424	 13.5938	  13.594	  81.345
 1632	  0.2432	 13.6437	  13.644	  81.645
 1638	  0.2440	 13.6937	  13.694	  81.945
 1644	  0.2460	 13.7437	  13.744	  82.245
 1650	  0.2448	 13.7937	  13.794	  82.545
 1656	  0.2464	 13.8438	  13.844	  82.845
 1662	  0.2472	 13.8950	  13.895	  83.145
 1668	  0.2476	 13.9450	  13.945	  83.445
 1674	  0.2488	 13.9950	  13.995	  83.745
 1680	  0.2496	 14.0450	  14.045	  84.045
 1686	  0.2496	 14.0950	  14.095	  84.345
 1692	  0.2516	 14.1450	  14.145	  84.645
 1698	  0.2516	 14.1950	  14.195	  84.945
 1704	  0.2520	 14.2450	  14.245	  85.245
 1710	  0.2528	 14.2962	  14.296	  85.545
 1716	  0.2536	 14.3462	  14.346	  85.845
 1722	  0.2544	 14.3962	  14.396	  86.145
 1728	  0.2556	 14.4462	  14.446	  86.445
 1734	  0.2560	 14.4975	  14.497	  86.745
 1740	  0.2564	 14.5475	  14.547	  87.045
 1746	  0.2584	 14.5975	  14.597	  87.345
 1752	  0.2584	 14.6475	  14.648	  87.645
 1758	  0.2588	 14.6987	  14.699	  87.945
 1764	  0.2600	 14.7487	  14.749	  88.245
 1770	  0.2604	 14.7987	  14.799	  88.545
 1776	  0.2616	 14.8488	  14.849	  88.845
 1782	  0.2616	 14.8987	  14.899	  89.145
 1788	  0.2632	 14.9487	  14.949	  89.445
 1794	  0.2636	 14.9987	  14.999	  89.745
 1800	  0.2636	 15.0487	  15.049	  90.045
 1806	  0.2652	 15.1000	  15.100	  90.345
 1812	  0.2648	 15.1500	  15.150	  90.645
 1818	  0.2664	 15.2000	  15.200	  90.945
 1824	  0.2676	 15.2500	  15.250	  91.245
 1830	  0.2684	 15.3000	  15.300	  91.545
 1836	  0.2680	 15.3500	  15.350	  91.845
 1842	  0.2684	 15.4012	  15.401	  92.145
 1848	  0.2688	 15.4513	  15.451	  92.445
 1854	  0.2700	 15.5000	  15.500	  92.745
 1860	  0.2700	 15.5500	  15.550	  93.045
 1866	  0.2716	 15.6000	  15.600	  93.345
 1872	  0.2716	 15.6500	  15.650	  93.645
 1878	  0.2724	 15.7013	  15.701	  93.945
 1884	  0.2728	 15.7512	  15.751	  94.245
 1890	  0.2740	 15.8012	  15.801	  94.545
 1896	  0.2740	 15.8512	  15.851	  94.845
 1902	  0.2748	 15.9012	  15.901	  95.145
 1908	  0.2764	 15.9513	  15.951	  95.445
 1914	  0.2760	 16.0012	  16.001	  95.745
 1920	  0.2776	 16.0513	  16.051	  96.045
 1926	  0.2780	 16.1012	  16.101	  96.345
 1932	  0.2780	 16.1500	  16.150	  96.645
 1938	  0.2784	 16.2013	  16.201	  96.945
 1944	  0.2792	 16.2512	  16.251	  97.245
 1950	  0.2800	 16.3013	  16.301	  97.545
 1956	  0.2804	 16.3512	  16.351	  97.845
 1962	  0.2812	 16.4012	  16.401	  98.145
 1968	  0.2816	 16.4513	  16.451	  98.445
 1974	  0.2824	 16.5012	  16.501	  98.745
 1980	  0.2828	 16.5513	  16.551	  99.045
 1986	  0.2832	 16.6000	  16.600	  99.345
 1992	  0.2836	 16.6512	  16.651	  99.645
 1998	  0.2848	 16.7000	  16.700	  99.945
 2004	  0.2856	 16.7512	  16.751	 100.245
 2010	  0.2868	 16.8013	  16.801	 100.545
 2016	  0.2872	 16.8500	  16.850	 100.845
 2022	  0.2872	 16.9012	  16.901	 101.145
 2028	  0.2880	 16.9513	  16.951	 101.445
 2034	  0.2884	 17.0000	  17.000	 101.745
 2040	  0.2892	 17.0513	  17.051	 102.045
 2046	  0.2896	 17.1000	  17.100	 102.345
 2052	  0.2900	 17.1500	  17.150	 102.645
 2058	  0.2900	 17.2013	  17.201	 102.945
 2064	  0.2916	 17.2512	  17.251	 103.245
 2070	  0.2920	 17.3013	  17.301	 103.545
 2076	  0.2924	 17.3512	  17.351	 103.845
 2082	  0.2932	 17.4012	  17.401	 104.145
 2088	  0.2932	 17.4513	  17.451	 104.445
 2094	  0.2936	 17.5012	  17.501	 104.745
 2100	  0.2952	 17.5500	  17.550	 105.045
 2106	  0.2948	 17.6000	  17.600	 105.345
 2112	  0.2956	 17.6500	  17.650	 105.645
 2118	  0.2952	 17.7000	  17.700	 105.945
 2124	  0.2960	 17.7512	  17.751	 106.245
 2130	  0.2964	 17.8013	  17.801	 106.545
 2136	  0.2976	 17.8512	  17.851	 106.845
 2142	  0.2976	 17.9012	  17.901	 107.145
 2148	  0.2984	 17.9513	  17.951	 107.445
 2154	  0.2992	 18.0012	  18.001	 107.745
 2160	  0.2988	 18.0513	  18.051	 108.045
 2166	  0.2996	 18.1012	  18.101	 108.345
 2172	  0.3008	 18.1525	  18.153	 108.645
 2178	  0.3012	 18.2025	  18.202	 108.945
 2184	  0.3028	 18.2525	  18.253	 109.245
 2190	  0.3012	 18.3025	  18.302	 109.545
 2196	  0.3024	 18.3525	  18.352	 109.845
 2202	  0.3032	 18.4025	  18.403	 110.145
 2208	  0.3040	 18.4537	  18.454	 110.445
 2214	  0.3040	 18.5037	  18.504	 110.745
 2220	  0.3040	 18.5537	  18.554	 111.045
 2226	  0.3048	 18.6050	  18.605	 111.345
 2232	  0.3052	 18.6550	  18.655	 111.645
 2238	  0.3056	 18.7050	  18.705	 111.945
 2244	  0.3064	 18.7563	  18.756	 112.245
 2250	  0.3064	 18.8062	  18.806	 112.545
 2256	  0.3068	 18.8562	  18.856	 112.845
 2262	  0.3076	 18.9062	  18.906	 113.145
 2268	  0.3092	 18.9562	  18.956	 113.445
 2274	  0.3092	 19.0075	  19.007	 113.745
 2280	  0.3092	 19.0575	  19.057	 114.045
 2286	  0.3096	 19.1075	  19.108	 114.345
 2292	  0.3100	 19.1587	  19.159	 114.645
 2298	  0.3104	 19.2087	  19.209	 114.945
 2304	  0.3104	 19.2587	  19.259	 115.245
 2310	  0.3108	 19.3088	  19.309	 115.545
 2316	  0.3120	 19.3600	  19.360	 115.845
 2322	  0.3124	 19.4100	  19.410	 116.145
 2328	  0.3124	 19.4600	  19.460	 116.445
 2334	  0.3128	 19.5100	  19.510	 116.745
 2340	  0.3136	 19.5600	  19.560	 117.045
 2346	  0.3144	 19.6112	  19.611	 117.345
 2352	  0.3144	 19.6612	  19.661	 117.645
 2358	  0.3152	 19.7113	  19.711	 117.945
 2364	  0.3152	 19.7612	  19.761	 118.245
 2370	  0.3156	 19.8112	  19.811	 118.545
 2376	  0.3160	 19.8625	  19.862	 118.845
 2382	  0.3168	 19.9125	  19.913	 119.145
 2388	  0.3168	 19.9625	  19.962	 119.445
 2394	  0.3176	 20.0125	  20.012	 119.745
 2400	  0.3172	 20.0625	  20.062	 120.045
 2406	  0.3176	 20.1125	  20.112	 120.345
 2412	  0.3188	 20.1625	  20.163	 120.645
 2418	  0.3192	 20.2125	  20.212	 120.945
 2424	  0.3188	 20.2625	  20.262	 121.245
 2430	  0.3200	 20.3125	  20.312	 121.545
 2436	  0.3208	 20.3625	  20.362	 121.845
 2442	  0.3212	 20.4125	  20.413	 122.145
 2448	  0.3220	 20.4625	  20.462	 122.445
 2454	  0.3220	 20.5125	  20.512	 122.745
 2460	  0.3232	 20.5637	  20.564	 123.045
 2466	  0.3236	 20.6125	  20.612	 123.345
 2472	  0.3236	 20.6637	  20.664	 123.645
 2478	  0.3240	 20.7137	  20.714	 123.945
 2484	  0.3240	 20.7638	  20.764	 124.245
 2490	  0.3240	 20.8137	  20.814	 124.545
 2496	  0.3248	 20.8638	  20.864	 124.845
 2502	  0.3252	 20.9137	  20.914	 125.145
 2508	  0.3256	 20.9637	  20.964	 125.445
 2514	  0.3264	 21.0138	  21.014	 125.745
 2520	  0.3268	 21.0637	  21.064	 126.045
 2526	  0.3272	 21.1138	  21.114	 126.345
 2532	  0.3272	 21.1637	  21.164	 126.645
 2538	  0.3284	 21.2137	  21.214	 126.945
 2544	  0.3280	 21.2638	  21.264	 127.245
 2550	  0.3288	 21.3137	  21.314	 127.545
 2556	  0.3288	 21.3638	  21.364	 127.845
 2562	  0.3288	 21.4137	  21.414	 128.145
 2568	  0.3304	 21.4637	  21.464	 128.445
 2574	  0.3300	 21.5138	  21.514	 128.745
 2580	  0.3300	 21.5637	  21.564	 129.045
 2586	  0.3300	 21.6138	  21.614	 129.345
 2592	  0.3308	 21.6637	  21.664	 129.645
 2598	  0.3312	 21.7137	  21.714	 129.945
 2604	  0.3312	 21.7638	  21.764	 130.245
 2610	  0.3320	 21.8137	  21.814	 130.545
 2616	  0.3328	 21.8638	  21.864	 130.845
 2622	  0.3332	 21.9137	  21.914	 131.145
 2628	  0.3336	 21.9637	  21.964	 131.445
 2634	  0.3332	 22.0138	  22.014	 131.745
 2640	  0.3340	 22.0650	  22.065	 132.045
 2646	  0.3348	 22.1150	  22.115	 132.345
 2652	  0.3344	 22.1650	  22.165	 132.645
 2658	  0.3356	 22.2150	  22.215	 132.945
 2664	  0.3360	 22.2650	  22.265	 133.245
 2670	  0.3356	 22.3150	  22.315	 133.545
 2676	  0.3364	 22.3650	  22.365	 133.845
 2682	  0.3372	 22.4150	  22.415	 134.145
 2688	  0.3364	 22.4650	  22.465	 134.445
 2694	  0.3384	 22.5150	  22.515	 134.745
 2700	  0.3384	 22.5662	  22.566	 135.045
 2706	  0.3380	 22.6162	  22.616	 135.345
 2712	  0.3392	 22.6663	  22.666	 135.645
 2718	  0.3392	 22.7162	  22.716	 135.945
 2724	  0.3400	 22.7675	  22.767	 136.245
 2730	  0.3412	 22.8175	  22.817	 136.545
 2736	  0.3412	 22.8675	  22.868	 136.845
 2742	  0.3408	 22.9187	  22.919	 137.145
 2748	  0.3408	 22.9688	  22.969	 137.445
 2754	  0.3408	 23.0200	  23.020	 137.745
 2760	  0.3412	 23.0700	  23.070	 138.045
 2766	  0.3420	 23.1200	  23.120	 138.345
 2772	  0.3436	 23.1700	  23.170	 138.645
 2778	  0.3432	 23.2212	  23.221	 138.945
 2784	  0.3428	 23.2712	  23.271	 139.245
 2790	  0.3440	 23.3212	  23.321	 139.545
 2796	  0.3444	 23.3713	  23.371	 139.845
 2802	  0.3444	 23.4225	  23.422	 140.145
 2808	  0.3452	 23.4725	  23.472	 140.445
 2814	  0.3452	 23.5225	  23.522	 140.745
 2820	  0.3456	 23.5725	  23.573	 141.045
 2826	  0.3456	 23.6237	  23.624	 141.345
 2832	  0.3468	 23.6737	  23.674	 141.645
 2838	  0.3472	 23.7237	  23.724	 141.945
 2844	  0.3472	 23.7738	  23.774	 142.245
 2850	  0.3472	 23.8237	  23.824	 142.545
 2856	  0.3476	 23.8737	  23.874	 142.845
 2862	  0.3484	 23.9237	  23.924	 143.145
 2868	  0.3488	 23.9737	  23.974	 143.445
 2874	  0.3496	 24.0238	  24.024	 143.745
 2880	  0.3488	 24.0737	  24.074	 144.045
 2886	  0.3496	 24.1237	  24.124	 144.345
 2892	  0.3504	 24.1737	  24.174	 144.645
 2898	  0.3500	 24.2237	  24.224	 144.945
 2904	  0.3508	 24.2738	  24.274	 145.245
 2910	  0.3508	 24.3250	  24.325	 145.545
 2916	  0.3512	 24.3737	  24.374	 145.845
 2922	  0.3520	 24.4237	  24.424	 146.145
 2928	  0.3516	 24.4737	  24.474	 146.445
 2934	  0.3516	 24.5238	  24.524	 146.745
 2940	  0.3528	 24.5737	  24.574	 147.045
 2946	  0.3528	 24.6225	  24.622	 147.345
 2952	  0.3532	 24.6725	  24.672	 147.645
 2958	  0.3540	 24.7225	  24.722	 147.945
 2964	  0.3536	 24.7725	  24.772	 148.245
 2970	  0.3544	 24.8225	  24.823	 148.545
 2976	  0.3548	 24.8725	  24.872	 148.845
 2982	  0.3552	 24.9225	  24.922	 149.145
 2988	  0.3548	 24.9725	  24.972	 149.445
 2994	  0.3552	 25.0225	  25.022	 149.745
 3000	  0.3560	 25.0725	  25.073	 150.045
 3006	  0.3556	 25.1225	  25.122	 150.345
 3012	  0.3560	 25.1725	  25.172	 150.645
 3018	  0.3568	 25.2225	  25.222	 150.945
 3024	  0.3572	 25.2725	  25.272	 151.245
 3030	  0.3576	 25.3225	  25.323	 151.545
 3036	  0.3576	 25.3725	  25.372	 151.845
 3042	  0.3580	 25.4225	  25.422	 152.145
 3048	  0.3588	 25.4725	  25.472	 152.445
 3054	  0.3584	 25.5225	  25.522	 152.745
 3060	  0.3588	 25.5725	  25.573	 153.045
 3066	  0.3580	 25.6225	  25.622	 153.345
 3072	  0.3584	 25.6725	  25.672	 153.645
 3078	  0.3596	 25.7225	  25.722	 153.945
 3084	  0.3600	 25.7725	  25.772	 154.245
 3090	  0.3600	 25.8237	  25.824	 154.545
 3096	  0.3612	 25.8737	  25.874	 154.845
 3102	  0.3608	 25.9237	  25.924	 155.145
 3108	  0.3620	 25.9737	  25.974	 155.445
 3114	  0.3612	 26.0238	  26.024	 155.745
 3120	  0.3616	 26.0737	  26.074	 156.045
 3126	  0.3624	 26.1237	  26.124	 156.345
 3132	  0.3620	 26.1737	  26.174	 156.645
 3138	  0.3628	 26.2250	  26.225	 156.945
 3144	  0.3632	 26.2750	  26.275	 157.245
 3150	  0.3632	 26.3250	  26.325	 157.545
 3156	  0.3640	 26.3750	  26.375	 157.845
 3162	  0.3644	 26.4250	  26.425	 158.145
 3168	  0.3644	 26.4750	  26.475	 158.445
 3174	  0.3648	 26.5250	  26.525	 158.745
 3180	  0.3656	 26.5763	  26.576	 159.045
 3186	  0.3656	 26.6262	  26.626	 159.345
 3192	  0.3656	 26.6762	  26.676	 159.645
 3198	  0.3660	 26.7262	  26.726	 159.945
 3204	  0.3668	 26.7775	  26.778	 160.245
 3210	  0.3664	 26.8275	  26.827	 160.545
 3216	  0.3684	 26.8775	  26.877	 160.845
 3222	  0.3676	 26.9275	  26.927	 161.145
 3228	  0.3684	 26.9788	  26.979	 161.445
 3234	  0.3672	 27.0287	  27.029	 161.745
 3240	  0.3684	 27.0800	  27.080	 162.045
 3246	  0.3692	 27.1300	  27.130	 162.345
 3252	  0.3680	 27.1800	  27.180	 162.645
 3258	  0.3684	 27.2300	  27.230	 162.945
 3264	  0.3684	 27.2800	  27.280	 163.245
 3270	  0.3688	 27.3300	  27.330	 163.545
 3276	  0.3692	 27.3812	  27.381	 163.845
 3282	  0.3700	 27.4312	  27.431	 164.145
 3288	  0.3700	 27.4812	  27.481	 164.445
 3294	  0.3704	 27.5312	  27.531	 164.745
 3300	  0.3708	 27.5812	  27.581	 165.045
 3306	  0.3708	 27.6312	  27.631	 165.345
 3312	  0.3716	 27.6812	  27.681	 165.645
 3318	  0.3712	 27.7325	  27.733	 165.945
 3324	  0.3720	 27.7825	  27.782	 166.245
 3330	  0.3716	 27.8325	  27.832	 166.545
 3336	  0.3720	 27.8825	  27.882	 166.845
 3342	  0.3724	 27.9325	  27.932	 167.145
 3348	  0.3728	 27.9825	  27.983	 167.445
 3354	  0.3716	 28.0325	  28.032	 167.745
 3360	  0.3724	 28.0837	  28.084	 168.045
 3366	  0.3728	 28.1337	  28.134	 168.345
 3372	  0.3732	 28.1838	  28.184	 168.645
 3378	  0.3732	 28.2337	  28.234	 168.945
 3384	  0.3744	 28.2837	  28.284	 169.245
 3390	  0.3752	 28.3350	  28.335	 169.545
 3396	  0.3748	 28.3837	  28.384	 169.845
 3402	  0.3748	 28.4350	  28.435	 170.145
 3408	  0.3756	 28.4850	  28.485	 170.445
 3414	  0.3756	 28.5350	  28.535	 170.745
 3420	  0.3752	 28.5850	  28.585	 171.045
 3426	  0.3760	 28.6350	  28.635	 171.345
 3432	  0.3764	 28.6850	  28.685	 171.645
 3438	  0.3768	 28.7350	  28.735	 171.945
 3444	  0.3772	 28.7850	  28.785	 172.245
 3450	  0.3776	 28.8350	  28.835	 172.545
 3456	  0.3768	 28.8850	  28.885	 172.845
 3462	  0.3776	 28.9350	  28.935	 173.145
 3468	  0.3784	 28.9850	  28.985	 173.445
 3474	  0.3784	 29.0350	  29.035	 173.745
 3480	  0.3784	 29.0862	  29.086	 174.045
 3486	  0.3792	 29.1362	  29.136	 174.345
 3492	  0.3788	 29.1862	  29.186	 174.645
 3498	  0.3784	 29.2362	  29.236	 174.945
 3504	  0.3792	 29.2862	  29.286	 175.245
 3510	  0.3788	 29.3362	  29.336	 175.545
 3516	  0.3792	 29.3862	  29.386	 175.845
 3522	  0.3800	 29.4362	  29.436	 176.145
 3528	  0.3804	 29.4862	  29.486	 176.445
 3534	  0.3804	 29.5362	  29.536	 176.745
 3540	  0.3808	 29.5875	  29.587	 177.045
 3546	  0.3808	 29.6375	  29.637	 177.345
 3552	  0.3816	 29.6875	  29.688	 177.645
 3558	  0.3820	 29.7375	  29.737	 177.945
 3564	  0.3820	 29.7875	  29.787	 178.245
 3570	  0.3816	 29.8375	  29.837	 178.545
 3576	  0.3816	 29.8875	  29.887	 178.845
 3582	  0.3824	 29.9375	  29.938	 179.145
 3588	  0.3828	 29.9887	  29.989	 179.445
 3594	  0.3828	 30.0387	  30.039	 179.745
 3600	  0.3832	 30.0887	  30.089	 180.045
 3606	  0.3832	 30.1388	  30.139	 180.345
 3612	  0.3836	 30.1887	  30.189	 180.645
 3618	  0.3844	 30.2387	  30.239	 180.945
 3624	  0.3844	 30.2887	  30.289	 181.245
 3630	  0.3852	 30.3387	  30.339	 181.545
 3636	  0.3848	 30.3900	  30.390	 181.845
 3642	  0.3848	 30.4400	  30.440	 182.145
 3648	  0.3856	 30.4900	  30.490	 182.445
 3654	  0.3860	 30.5400	  30.540	 182.745
 3660	  0.3856	 30.5900	  30.590	 183.045
 3666	  0.3856	 30.6400	  30.640	 183.345
 3672	  0.3856	 30.6900	  30.690	 183.645
 3678	  0.3864	 30.7412	  30.741	 183.945
 3684	  0.3864	 30.7913	  30.791	 184.245
 3690	  0.3868	 30.8412	  30.841	 184.545
 3696	  0.3872	 30.8912	  30.891	 184.845
 3702	  0.3872	 30.9425	  30.942	 185.145
 3708	  0.3872	 30.9925	  30.992	 185.445
 3714	  0.3872	 31.0425	  31.042	 185.745
 3720	  0.3880	 31.0938	  31.094	 186.045
 3726	  0.3888	 31.1437	  31.144	 186.345
 3732	  0.3892	 31.1937	  31.194	 186.645
 3738	  0.3884	 31.2437	  31.244	 186.945
 3744	  0.3888	 31.2937	  31.294	 187.245
 3750	  0.3888	 31.3450	  31.345	 187.545
 3756	  0.3888	 31.3950	  31.395	 187.845
 3762	  0.3900	 31.4450	  31.445	 188.145
 3768	  0.3896	 31.4950	  31.495	 188.445
 3774	  0.3900	 31.5450	  31.545	 188.745
 3780	  0.3904	 31.5950	  31.595	 189.045
 3786	  0.3904	 31.6462	  31.646	 189.345
 3792	  0.3908	 31.6950	  31.695	 189.645
 3798	  0.3912	 31.7450	  31.745	 189.945
 3804	  0.3916	 31.7962	  31.796	 190.245
 3810	  0.3920	 31.8462	  31.846	 190.545
 3816	  0.3920	 31.8962	  31.896	 190.845
 3822	  0.3916	 31.9450	  31.945	 191.145
 3828	  0.3916	 31.9950	  31.995	 191.445
 3834	  0.3916	 32.0450	  32.045	 191.745
 3840	  0.3924	 32.0962	  32.096	 192.045
 3846	  0.3920	 32.1462	  32.146	 192.345
 3852	  0.3932	 32.1963	  32.196	 192.645
 3858	  0.3940	 32.2463	  32.246	 192.945
 3864	  0.3940	 32.2962	  32.296	 193.245
 3870	  0.3940	 32.3462	  32.346	 193.545
 3876	  0.3940	 32.3962	  32.396	 193.845
 3882	  0.3940	 32.4463	  32.446	 194.145
 3888	  0.3940	 32.4963	  32.496	 194.445
 3894	  0.3944	 32.5462	  32.546	 194.745
 3900	  0.3936	 32.5962	  32.596	 195.045
 3906	  0.3944	 32.6462	  32.646	 195.345
 3912	  0.3948	 32.6963	  32.696	 195.645
 3918	  0.3948	 32.7475	  32.747	 195.945
 3924	  0.3956	 32.7975	  32.798	 196.245
 3930	  0.3948	 32.8475	  32.847	 196.545
 3936	  0.3956	 32.8975	  32.897	 196.845
 3942	  0.3960	 32.9475	  32.947	 197.145
 3948	  0.3956	 32.9963	  32.996	 197.445
 3954	  0.3956	 33.0462	  33.046	 197.745
 3960	  0.3964	 33.0962	  33.096	 198.045
 3966	  0.3968	 33.1475	  33.147	 198.345
 3972	  0.3968	 33.1975	  33.197	 198.645
 3978	  0.3968	 33.2475	  33.247	 198.945
 3984	  0.3968	 33.2975	  33.298	 199.245
 3990	  0.3976	 33.3475	  33.347	 199.545
 3996	  0.3972	 33.3975	  33.397	 199.845
 4002	  0.3976	 33.4487	  33.449	 200.145
 4008	  0.3972	 33.4975	  33.497	 200.445
 4014	  0.3984	 33.5475	  33.548	 200.745
 4020	  0.3980	 33.5988	  33.599	 201.045
 4026	  0.3988	 33.6488	  33.649	 201.345
 4032	  0.3992	 33.6987	  33.699	 201.645
 4038	  0.3988	 33.7487	  33.749	 201.945
 4044	  0.3988	 33.7975	  33.798	 202.245
 4050	  0.3992	 33.8475	  33.847	 202.545
 4056	  0.4000	 33.8975	  33.897	 202.845
 4062	  0.4000	 33.9475	  33.947	 203.145
 4068	  0.4008	 33.9975	  33.997	 203.445
 4074	  0.4008	 34.0475	  34.048	 203.745
 4080	  0.4008	 34.0975	  34.097	 204.045
 4086	  0.4004	 34.1475	  34.147	 204.345
 4092	  0.4008	 34.1975	  34.197	 204.645
 4098	  0.4004	 34.2475	  34.247	 204.945
 4104	  0.4012	 34.2975	  34.298	 205.245
 4110	  0.4004	 34.3488	  34.349	 205.545
 4116	  0.4004	 34.3988	  34.399	 205.845
 4122	  0.4008	 34.4487	  34.449	 206.145
 4128	  0.4016	 34.4987	  34.499	 206.445
 4134	  0.4016	 34.5487	  34.549	 206.745
 4140	  0.4020	 34.5988	  34.599	 207.045
 4146	  0.4024	 34.6488	  34.649	 207.345
 4152	  0.4020	 34.7000	  34.700	 207.645
 4158	  0.4024	 34.7500	  34.750	 207.945
 4164	  0.4028	 34.8000	  34.800	 208.245
 4170	  0.4020	 34.8500	  34.850	 208.545
 4176	  0.4028	 34.9000	  34.900	 208.845
 4182	  0.4024	 34.9500	  34.950	 209.145
 4188	  0.4028	 35.0012	  35.001	 209.445
 4194	  0.4028	 35.0513	  35.051	 209.745
 4200	  0.4036	 35.1012	  35.101	 210.045
 4206	  0.4044	 35.1512	  35.151	 210.345
 4212	  0.4040	 35.2012	  35.201	 210.645
 4218	  0.4044	 35.2512	  35.251	 210.945
 4224	  0.4048	 35.3013	  35.301	 211.245
 4230	  0.4048	 35.3525	  35.353	 211.545
 4236	  0.4048	 35.4025	  35.403	 211.845
 4242	  0.4044	 35.4525	  35.452	 212.145
 4248	  0.4048	 35.5025	  35.502	 212.445
 4254	  0.4064	 35.5525	  35.552	 212.745
 4260	  0.4052	 35.6025	  35.603	 213.045
 4266	  0.4052	 35.6537	  35.654	 213.345
 4272	  0.4060	 35.7038	  35.704	 213.645
 4278	  0.4056	 35.7537	  35.754	 213.945
 4284	  0.4060	 35.8037	  35.804	 214.245
 4290	  0.4068	 35.8537	  35.854	 214.545
 4296	  0.4068	 35.9037	  35.904	 214.845
 4302	  0.4068	 35.9550	  35.955	 215.145
 4308	  0.4076	 36.0050	  36.005	 215.445
 4314	  0.4076	 36.0550	  36.055	 215.745
 4320	  0.4080	 36.1050	  36.105	 216.045
 4326	  0.4076	 36.1550	  36.155	 216.345
 4332	  0.4080	 36.2050	  36.205	 216.645
 4338	  0.4088	 36.2562	  36.256	 216.945
 4344	  0.4092	 36.3050	  36.305	 217.245
 4350	  0.4088	 36.3563	  36.356	 217.545
 4356	  0.4088	 36.4062	  36.406	 217.845
 4362	  0.4084	 36.4562	  36.456	 218.145
 4368	  0.4092	 36.5062	  36.506	 218.445
 4374	  0.4092	 36.5562	  36.556	 218.745
 4380	  0.4092	 36.6063	  36.606	 219.045
 4386	  0.4092	 36.6562	  36.656	 219.345
 4392	  0.4096	 36.7062	  36.706	 219.645
 4398	  0.4092	 36.7562	  36.756	 219.945
 4404	  0.4104	 36.8062	  36.806	 220.245
 4410	  0.4100	 36.8563	  36.856	 220.545
 4416	  0.4108	 36.9062	  36.906	 220.845
 4422	  0.4112	 36.9562	  36.956	 221.145
 4428	  0.4108	 37.0062	  37.006	 221.445
 4434	  0.4104	 37.0575	  37.057	 221.745
 4440	  0.4108	 37.1075	  37.107	 222.045
 4446	  0.4112	 37.1562	  37.156	 222.345
 4452	  0.4116	 37.2062	  37.206	 222.645
 4458	  0.4112	 37.2562	  37.256	 222.945
 4464	  0.4120	 37.3075	  37.307	 223.245
 4470	  0.4120	 37.3575	  37.357	 223.545
 4476	  0.4124	 37.4062	  37.406	 223.845
 4482	  0.4124	 37.4575	  37.458	 224.145
 4488	  0.4124	 37.5062	  37.506	 224.445
 4494	  0.4124	 37.5562	  37.556	 224.745
 4500	  0.4132	 37.6075	  37.607	 225.045
 4506	  0.4140	 37.6562	  37.656	 225.345
 4512	  0.4132	 37.7062	  37.706	 225.645
 4518	  0.4132	 37.7575	  37.757	 225.945
 4524	  0.4132	 37.8062	  37.806	 226.245
 4530	  0.4136	 37.8575	  37.857	 226.545
 4536	  0.4144	 37.9075	  37.907	 226.845
 4542	  0.4140	 37.9562	  37.956	 227.145
 4548	  0.4140	 38.0062	  38.006	 227.445
 4554	  0.4148	 38.0562	  38.056	 227.745
 4560	  0.4152	 38.1075	  38.107	 228.045
 4566	  0.4144	 38.1575	  38.157	 228.345
 4572	  0.4152	 38.2075	  38.208	 228.645
 4578	  0.4144	 38.2575	  38.257	 228.945
 4584	  0.4156	 38.3075	  38.307	 229.245
 4590	  0.4160	 38.3575	  38.357	 229.545
 4596	  0.4152	 38.4075	  38.407	 229.845
 4602	  0.4152	 38.4587	  38.459	 230.145
 4608	  0.4156	 38.5088	  38.509	 230.445
 4614	  0.4160	 38.5588	  38.559	 230.745
 4620	  0.4160	 38.6087	  38.609	 231.045
 4626	  0.4168	 38.6587	  38.659	 231.345
 4632	  0.4164	 38.7100	  38.710	 231.645
 4638	  0.4164	 38.7600	  38.760	 231.945
 4644	  0.4164	 38.8100	  38.810	 232.245
 4650	  0.4164	 38.8600	  38.860	 232.545
 4656	  0.4176	 38.9100	  38.910	 232.845
 4662	  0.4168	 38.9600	  38.960	 233.145
 4668	  0.4164	 39.0112	  39.011	 233.445
 4674	  0.4172	 39.0612	  39.061	 233.745
 4680	  0.4176	 39.1112	  39.111	 234.045
 4686	  0.4176	 39.1625	  39.162	 234.345
 4692	  0.4180	 39.2125	  39.212	 234.645
 4698	  0.4184	 39.2625	  39.263	 234.945
 4704	  0.4180	 39.3125	  39.312	 235.245
 4710	  0.4184	 39.3638	  39.364	 235.545
 4716	  0.4192	 39.4137	  39.414	 235.845
 4722	  0.4196	 39.4637	  39.464	 236.145
 4728	  0.4192	 39.5150	  39.515	 236.445
 4734	  0.4192	 39.5650	  39.565	 236.745
 4740	  0.4192	 39.6150	  39.615	 237.045
 4746	  0.4188	 39.6662	  39.666	 237.345
 4752	  0.4188	 39.7162	  39.716	 237.645
 4758	  0.4196	 39.7663	  39.766	 237.945
 4764	  0.4200	 39.8162	  39.816	 238.245
 4770	  0.4200	 39.8675	  39.868	 238.545
 4776	  0.4204	 39.9175	  39.917	 238.845
 4782	  0.4200	 39.9675	  39.967	 239.145
 4788	  0.4212	 40.0175	  40.017	 239.445
 4794	  0.4200	 40.0675	  40.067	 239.745
 4800	  0.4208	 40.1187	  40.119	 240.045
 4806	  0.4212	 40.1688	  40.169	 240.345
 4812	  0.4204	 40.2188	  40.219	 240.645
 4818	  0.4216	 40.2687	  40.269	 240.945
 4824	  0.4216	 40.3187	  40.319	 241.245
 4830	  0.4216	 40.3700	  40.370	 241.545
 4836	  0.4216	 40.4200	  40.420	 241.845
 4842	  0.4216	 40.4700	  40.470	 242.145
 4848	  0.4216	 40.5200	  40.520	 242.445
 4854	  0.4212	 40.5700	  40.570	 242.745
 4860	  0.4224	 40.6200	  40.620	 243.045
 4866	  0.4236	 40.6700	  40.670	 243.345
 4872	  0.4228	 40.7212	  40.721	 243.645
 4878	  0.4232	 40.7700	  40.770	 243.945
 4884	  0.4236	 40.8213	  40.821	 244.245
 4890	  0.4228	 40.8713	  40.871	 244.545
 4896	  0.4232	 40.9212	  40.921	 244.845
 4902	  0.4232	 40.9712	  40.971	 245.145
 4908	  0.4236	 41.0212	  41.021	 245.445
 4914	  0.4236	 41.0713	  41.071	 245.745
 4920	  0.4224	 41.1213	  41.121	 246.045
 4926	  0.4240	 41.1712	  41.171	 246.345
 4932	  0.4232	 41.2212	  41.221	 246.645
 4938	  0.4236	 41.2712	  41.271	 246.945
 4944	  0.4244	 41.3213	  41.321	 247.245
 4950	  0.4256	 41.3713	  41.371	 247.545
 4956	  0.4256	 41.4212	  41.421	 247.845
 4962	  0.4252	 41.4712	  41.471	 248.145
 4968	  0.4252	 41.5212	  41.521	 248.445
 4974	  0.4252	 41.5713	  41.571	 248.745
 4980	  0.4260	 41.6213	  41.621	 249.045
 4986	  0.4256	 41.6712	  41.671	 249.345
 4992	  0.4260	 41.7212	  41.721	 249.645
 4998	  0.4264	 41.7712	  41.771	 249.945
 5004	  0.4260	 41.8213	  41.821	 250.245
 5010	  0.4260	 41.8713	  41.871	 250.545
 5016	  0.4260	 41.9212	  41.921	 250.845
 5022	  0.4260	 41.9712	  41.971	 251.145
 5028	  0.4256	 42.0212	  42.021	 251.445
 5034	  0.4272	 42.0713	  42.071	 251.745
 5040	  0.4264	 42.1213	  42.121	 252.045
 5046	  0.4272	 42.1712	  42.171	 252.345
 5052	  0.4272	 42.2212	  42.221	 252.645
 5058	  0.4268	 42.2700	  42.270	 252.945
 5064	  0.4260	 42.3200	  42.320	 253.245
 5070	  0.4276	 42.3700	  42.370	 253.545
 5076	  0.4276	 42.4200	  42.420	 253.845
 5082	  0.4276	 42.4700	  42.470	 254.145
 5088	  0.4272	 42.5187	  42.519	 254.445
 5094	  0.4288	 42.5687	  42.569	 254.745
 5100	  0.4284	 42.6187	  42.619	 255.045
 5106	  0.4292	 42.6688	  42.669	 255.345
 5112	  0.4292	 42.7188	  42.719	 255.645
 5118	  0.4300	 42.7687	  42.769	 255.945
 5124	  0.4288	 42.8187	  42.819	 256.245
 5130	  0.4292	 42.8700	  42.870	 256.545
 5136	  0.4296	 42.9200	  42.920	 256.845
 5142	  0.4292	 42.9700	  42.970	 257.145
 5148	  0.4288	 43.0200	  43.020	 257.445
 5154	  0.4292	 43.0713	  43.071	 257.745
 5160	  0.4296	 43.1213	  43.121	 258.045
 5166	  0.4296	 43.1712	  43.171	 258.345
 5172	  0.4300	 43.2225	  43.222	 258.645
 5178	  0.4296	 43.2725	  43.272	 258.945
 5184	  0.4296	 43.3225	  43.322	 259.245
 5190	  0.4304	 43.3737	  43.374	 259.545
 5196	  0.4300	 43.4237	  43.424	 259.845
 5202	  0.4300	 43.4737	  43.474	 260.145
 5208	  0.4296	 43.5250	  43.525	 260.445
 5214	  0.4308	 43.5750	  43.575	 260.745
 5220	  0.4308	 43.6250	  43.625	 261.045
 5226	  0.4312	 43.6750	  43.675	 261.345
 5232	  0.4308	 43.7250	  43.725	 261.645
 5238	  0.4308	 43.7750	  43.775	 261.945
 5244	  0.4316	 43.8262	  43.826	 262.245
 5250	  0.4320	 43.8762	  43.876	 262.545
 5256	  0.4320	 43.9263	  43.926	 262.845
 5262	  0.4320	 43.9762	  43.976	 263.145
 5268	  0.4308	 44.0262	  44.026	 263.445
 5274	  0.4316	 44.0775	  44.077	 263.745
 5280	  0.4308	 44.1275	  44.127	 264.045
 5286	  0.4312	 44.1775	  44.177	 264.345
 5292	  0.4328	 44.2275	  44.228	 264.645
 5298	  0.4324	 44.2775	  44.278	 264.945
 5304	  0.4332	 44.3275	  44.327	 265.245
 5310	  0.4324	 44.3787	  44.379	 265.545
 5316	  0.4328	 44.4287	  44.429	 265.845
 5322	  0.4328	 44.4787	  44.479	 266.145
 5328	  0.4336	 44.5287	  44.529	 266.445
 5334	  0.4332	 44.5788	  44.579	 266.745
 5340	  0.4332	 44.6300	  44.630	 267.045
 5346	  0.4332	 44.6800	  44.680	 267.345
 5352	  0.4332	 44.7300	  44.730	 267.645
 5358	  0.4336	 44.7787	  44.779	 267.945
 5364	  0.4336	 44.8300	  44.830	 268.245
 5370	  0.4336	 44.8800	  44.880	 268.545
 5376	  0.4340	 44.9300	  44.930	 268.845
 5382	  0.4340	 44.9800	  44.980	 269.145
 5388	  0.4356	 45.0300	  45.030	 269.445
 5394	  0.4344	 45.0800	  45.080	 269.745
 5400	  0.4352	 45.1300	  45.130	 270.045
 5406	  0.4352	 45.1800	  45.180	 270.345
 5412	  0.4352	 45.2300	  45.230	 270.645
 5418	  0.4348	 45.2800	  45.280	 270.945
 5424	  0.4348	 45.3300	  45.330	 271.245
 5430	  0.4356	 45.3800	  45.380	 271.545
 5436	  0.4352	 45.4300	  45.430	 271.845
 5442	  0.4356	 45.4800	  45.480	 272.145
 5448	  0.4352	 45.5300	  45.530	 272.445
 5454	  0.4352	 45.5800	  45.580	 272.745
 5460	  0.4360	 45.6300	  45.630	 273.045
 5466	  0.4356	 45.6800	  45.680	 273.345
 5472	  0.4360	 45.7300	  45.730	 273.645
 5478	  0.4364	 45.7800	  45.780	 273.945
 5484	  0.4356	 45.8300	  45.830	 274.245
 5490	  0.4364	 45.8800	  45.880	 274.545
 5496	  0.4368	 45.9300	  45.930	 274.845
 5502	  0.4372	 45.9800	  45.980	 275.145
 5508	  0.4368	 46.0300	  46.030	 275.445
 5514	  0.4368	 46.0800	  46.080	 275.745
 5520	  0.4372	 46.1300	  46.130	 276.045
 5526	  0.4376	 46.1800	  46.180	 276.345
 5532	  0.4376	 46.2300	  46.230	 276.645
 5538	  0.4384	 46.2800	  46.280	 276.945
 5544	  0.4380	 46.3300	  46.330	 277.245
 5550	  0.4380	 46.3800	  46.380	 277.545
 5556	  0.4384	 46.4300	  46.430	 277.845
 5562	  0.4392	 46.4800	  46.480	 278.145
 5568	  0.4380	 46.5300	  46.530	 278.445
 5574	  0.4388	 46.5800	  46.580	 278.745
 5580	  0.4384	 46.6312	  46.631	 279.045
 5586	  0.4396	 46.6812	  46.681	 279.345
 5592	  0.4384	 46.7313	  46.731	 279.645
 5598	  0.4396	 46.7812	  46.781	 279.945
 5604	  0.4396	 46.8312	  46.831	 280.245
 5610	  0.4392	 46.8812	  46.881	 280.545
 5616	  0.4392	 46.9325	  46.932	 280.845
 5622	  0.4388	 46.9825	  46.982	 281.145
 5628	  0.4392	 47.0325	  47.032	 281.445
 5634	  0.4396	 47.0825	  47.083	 281.745
 5640	  0.4396	 47.1325	  47.132	 282.045
 5646	  0.4388	 47.1825	  47.182	 282.345
 5652	  0.4392	 47.2325	  47.232	 282.645
 5658	  0.4396	 47.2825	  47.282	 282.945
 5664	  0.4396	 47.3325	  47.333	 283.245
 5670	  0.4400	 47.3837	  47.384	 283.545
 5676	  0.4404	 47.4338	  47.434	 283.845
 5682	  0.4400	 47.4837	  47.484	 284.145
 5688	  0.4400	 47.5337	  47.534	 284.445
 5694	  0.4404	 47.5837	  47.584	 284.745
 5700	  0.4404	 47.6350	  47.635	 285.045
 5706	  0.4408	 47.6850	  47.685	 285.345
 5712	  0.4408	 47.7350	  47.735	 285.645
 5718	  0.4412	 47.7850	  47.785	 285.945
 5724	  0.4412	 47.8350	  47.835	 286.245
 5730	  0.4412	 47.8862	  47.886	 286.545
 5736	  0.4416	 47.9362	  47.936	 286.845
 5742	  0.4416	 47.9862	  47.986	 287.145
 5748	  0.4420	 48.0362	  48.036	 287.445
 5754	  0.4416	 48.0875	  48.087	 287.745
 5760	  0.4424	 48.1375	  48.138	 288.045
 5766	  0.4420	 48.1875	  48.188	 288.345
 5772	  0.4420	 48.2375	  48.237	 288.645
 5778	  0.4428	 48.2887	  48.289	 288.945
 5784	  0.4424	 48.3387	  48.339	 289.245
 5790	  0.4428	 48.3887	  48.389	 289.545
 5796	  0.4424	 48.4387	  48.439	 289.845
 5802	  0.4428	 48.4888	  48.489	 290.145
 5808	  0.4424	 48.5400	  48.540	 290.445
 5814	  0.4424	 48.5900	  48.590	 290.745
 5820	  0.4432	 48.6400	  48.640	 291.045
 5826	  0.4428	 48.6900	  48.690	 291.345
 5832	  0.4428	 48.7400	  48.740	 291.645
 5838	  0.4424	 48.7912	  48.791	 291.945
 5844	  0.4424	 48.8412	  48.841	 292.245
 5850	  0.4420	 48.8913	  48.891	 292.545
 5856	  0.4428	 48.9412	  48.941	 292.845
 5862	  0.4428	 48.9912	  48.991	 293.145
 5868	  0.4424	 49.0425	  49.042	 293.445
 5874	  0.4428	 49.0912	  49.091	 293.745
 5880	  0.4432	 49.1413	  49.141	 294.045
 5886	  0.4432	 49.1912	  49.191	 294.345
 5892	  0.4428	 49.2412	  49.241	 294.645
 5898	  0.4200	 49.2912	  49.291	 294.945
 5904	  0.4132	 49.3412	  49.341	 295.245
 5910	  0.4124	 49.3913	  49.391	 295.545
 5916	  0.4100	 49.4425	  49.442	 295.845
 5922	  0.4064	 49.4925	  49.493	 296.145
 5928	  0.0528	 49.5425	  49.542	 296.445
 5934	  0.0028	 49.5925	  49.592	 296.745
 5940	  0.0024	 49.6425	  49.642	 297.045
 5946	  0.0028	 49.6925	  49.692	 297.345
 5952	  0.0028	 49.7425	  49.743	 297.645
 5958	  0.0024	 49.7925	  49.792	 297.945
 5964	  0.0028	 49.8425	  49.842	 298.245
 5970	  0.0028	 49.8925	  49.892	 298.545
 5976	  0.0032	 49.9425	  49.942	 298.845
 5982	  0.0028	 49.9912	  49.991	 299.145
 5986	  0.0032	 50.0250	  50.025	 299.345
ControlMode:	0
Rate:	 10.0000
(null)
4
step	1
0
5.000000
0.000000
1
1
0.500000
2
step	2
1
5.000000
0.000000
1
1
2.000000
3
step	3
5
2.000000
0.000000
1
0
30
4
step	4
8
0.000000
0.000000
0
0
0.000000
0
2