File: Dados - Tração/P2-lacre omega 01.txt
0
Diameter:	   5.00
   1.00
Area:	  19.6350
GaugeLength:	  50.00
2009-1-1
A3
001
DataNumber:	3529
index	Load(kN)	Defor(mm)	Stroke(mm)	Time(s)
    0	  0.0092	  0.0088	   0.009	   0.045
    3	  0.0100	  0.0337	   0.034	   0.195
    6	  0.0092	  0.0587	   0.059	   0.345
    9	  0.0092	  0.0837	   0.084	   0.495
   12	  0.0092	  0.1088	   0.109	   0.645
   15	  0.0096	  0.1337	   0.134	   0.795
   18	  0.0100	  0.1587	   0.159	   0.945
   21	  0.0100	  0.1837	   0.184	   1.095
   24	  0.0100	  0.2087	   0.209	   1.245
   27	  0.0096	  0.2338	   0.234	   1.395
   30	  0.0100	  0.2600	   0.260	   1.545
   33	  0.0100	  0.2850	   0.285	   1.695
   36	  0.0100	  0.3100	   0.310	   1.845
   39	  0.0104	  0.3350	   0.335	   1.995
   42	  0.0108	  0.3600	   0.360	   2.145
   45	  0.0108	  0.3850	   0.385	   2.295
   48	  0.0108	  0.4100	   0.410	   2.445
   51	  0.0112	  0.4350	   0.435	   2.595
   54	  0.0116	  0.4600	   0.460	   2.745
   57	  0.0116	  0.4862	   0.486	   2.895
   60	  0.0124	  0.5112	   0.511	   3.045
   63	  0.0120	  0.5362	   0.536	   3.195
   66	  0.0116	  0.5612	   0.561	   3.345
   69	  0.0120	  0.5863	   0.586	   3.495
   72	  0.0128	  0.6112	   0.611	   3.645
   75	  0.0132	  0.6362	   0.636	   3.795
   78	  0.0132	  0.6612	   0.661	   3.945
   81	  0.0128	  0.6875	   0.688	   4.095
   84	  0.0132	  0.7125	   0.712	   4.245
   87	  0.0132	  0.7375	   0.738	   4.395
   90	  0.0132	  0.7625	   0.762	   4.545
   93	  0.0132	  0.7875	   0.787	   4.695
   96	  0.0140	  0.8125	   0.812	   4.845
   99	  0.0148	  0.8375	   0.837	   4.995
  102	  0.0148	  0.8625	   0.862	   5.145
  105	  0.0148	  0.8875	   0.887	   5.295
  108	  0.0144	  0.9125	   0.912	   5.445
  111	  0.0144	  0.9375	   0.938	   5.595
  114	  0.0148	  0.9625	   0.962	   5.745
  117	  0.0152	  0.9875	   0.987	   5.895
  120	  0.0156	  1.0125	   1.012	   6.045
  123	  0.0152	  1.0375	   1.038	   6.195
  126	  0.0152	  1.0625	   1.062	   6.345
  129	  0.0148	  1.0875	   1.087	   6.495
  132	  0.0148	  1.1125	   1.112	   6.645
  135	  0.0148	  1.1375	   1.137	   6.795
  138	  0.0156	  1.1637	   1.164	   6.945
  141	  0.0164	  1.1888	   1.189	   7.095
  144	  0.0168	  1.2138	   1.214	   7.245
  147	  0.0160	  1.2387	   1.239	   7.395
  150	  0.0164	  1.2637	   1.264	   7.545
  153	  0.0168	  1.2887	   1.289	   7.695
  156	  0.0172	  1.3138	   1.314	   7.845
  159	  0.0172	  1.3388	   1.339	   7.995
  162	  0.0176	  1.3637	   1.364	   8.145
  165	  0.0184	  1.3887	   1.389	   8.295
  168	  0.0184	  1.4137	   1.414	   8.445
  171	  0.0184	  1.4400	   1.440	   8.595
  174	  0.0180	  1.4638	   1.464	   8.745
  177	  0.0184	  1.4900	   1.490	   8.895
  180	  0.0192	  1.5150	   1.515	   9.045
  183	  0.0192	  1.5400	   1.540	   9.195
  186	  0.0200	  1.5650	   1.565	   9.345
  189	  0.0200	  1.5900	   1.590	   9.495
  192	  0.0204	  1.6150	   1.615	   9.645
  195	  0.0200	  1.6400	   1.640	   9.795
  198	  0.0212	  1.6650	   1.665	   9.945
  201	  0.0212	  1.6912	   1.691	  10.095
  204	  0.0220	  1.7162	   1.716	  10.245
  207	  0.0216	  1.7412	   1.741	  10.395
  210	  0.0220	  1.7663	   1.766	  10.545
  213	  0.0220	  1.7912	   1.791	  10.695
  216	  0.0228	  1.8162	   1.816	  10.845
  219	  0.0224	  1.8412	   1.841	  10.995
  222	  0.0224	  1.8675	   1.867	  11.145
  225	  0.0232	  1.8925	   1.892	  11.295
  228	  0.0236	  1.9162	   1.916	  11.445
  231	  0.0236	  1.9425	   1.942	  11.595
  234	  0.0244	  1.9675	   1.967	  11.745
  237	  0.0240	  1.9925	   1.992	  11.895
  240	  0.0248	  2.0175	   2.017	  12.045
  243	  0.0256	  2.0425	   2.043	  12.195
  246	  0.0256	  2.0675	   2.067	  12.345
  249	  0.0260	  2.0925	   2.092	  12.495
  252	  0.0260	  2.1175	   2.118	  12.645
  255	  0.0264	  2.1437	   2.144	  12.795
  258	  0.0268	  2.1675	   2.168	  12.945
  261	  0.0268	  2.1925	   2.192	  13.095
  264	  0.0272	  2.2175	   2.217	  13.245
  267	  0.0272	  2.2425	   2.243	  13.395
  270	  0.0272	  2.2687	   2.269	  13.545
  273	  0.0284	  2.2938	   2.294	  13.695
  276	  0.0284	  2.3187	   2.319	  13.845
  279	  0.0280	  2.3438	   2.344	  13.995
  282	  0.0292	  2.3687	   2.369	  14.145
  285	  0.0300	  2.3937	   2.394	  14.295
  288	  0.0308	  2.4188	   2.419	  14.445
  291	  0.0304	  2.4437	   2.444	  14.595
  294	  0.0304	  2.4688	   2.469	  14.745
  297	  0.0308	  2.4937	   2.494	  14.895
  300	  0.0312	  2.5187	   2.519	  15.045
  303	  0.0320	  2.5438	   2.544	  15.195
  306	  0.0320	  2.5700	   2.570	  15.345
  309	  0.0328	  2.5938	   2.594	  15.495
  312	  0.0320	  2.6200	   2.620	  15.645
  315	  0.0328	  2.6450	   2.645	  15.795
  318	  0.0332	  2.6700	   2.670	  15.945
  321	  0.0340	  2.6950	   2.695	  16.095
  324	  0.0344	  2.7200	   2.720	  16.245
  327	  0.0348	  2.7450	   2.745	  16.395
  330	  0.0348	  2.7700	   2.770	  16.545
  333	  0.0356	  2.7950	   2.795	  16.695
  336	  0.0356	  2.8200	   2.820	  16.845
  339	  0.0364	  2.8450	   2.845	  16.995
  342	  0.0372	  2.8700	   2.870	  17.145
  345	  0.0372	  2.8950	   2.895	  17.295
  348	  0.0376	  2.9200	   2.920	  17.445
  351	  0.0376	  2.9450	   2.945	  17.595
  354	  0.0384	  2.9700	   2.970	  17.745
  357	  0.0396	  2.9950	   2.995	  17.895
  360	  0.0392	  3.0200	   3.020	  18.045
  363	  0.0388	  3.0450	   3.045	  18.195
  366	  0.0400	  3.0700	   3.070	  18.345
  369	  0.0400	  3.0950	   3.095	  18.495
  372	  0.0408	  3.1212	   3.121	  18.645
  375	  0.0408	  3.1463	   3.146	  18.795
  378	  0.0416	  3.1700	   3.170	  18.945
  381	  0.0424	  3.1950	   3.195	  19.095
  384	  0.0424	  3.2200	   3.220	  19.245
  387	  0.0428	  3.2450	   3.245	  19.395
  390	  0.0432	  3.2713	   3.271	  19.545
  393	  0.0436	  3.2950	   3.295	  19.695
  396	  0.0440	  3.3200	   3.320	  19.845
  399	  0.0444	  3.3450	   3.345	  19.995
  402	  0.0452	  3.3700	   3.370	  20.145
  405	  0.0448	  3.3963	   3.396	  20.295
  408	  0.0456	  3.4212	   3.421	  20.445
  411	  0.0460	  3.4462	   3.446	  20.595
  414	  0.0464	  3.4700	   3.470	  20.745
  417	  0.0460	  3.4950	   3.495	  20.895
  420	  0.0468	  3.5200	   3.520	  21.045
  423	  0.0488	  3.5450	   3.545	  21.195
  426	  0.0484	  3.5712	   3.571	  21.345
  429	  0.0492	  3.5950	   3.595	  21.495
  432	  0.0492	  3.6200	   3.620	  21.645
  435	  0.0496	  3.6463	   3.646	  21.795
  438	  0.0500	  3.6712	   3.671	  21.945
  441	  0.0504	  3.6962	   3.696	  22.095
  444	  0.0512	  3.7200	   3.720	  22.245
  447	  0.0516	  3.7450	   3.745	  22.395
  450	  0.0520	  3.7700	   3.770	  22.545
  453	  0.0528	  3.7950	   3.795	  22.695
  456	  0.0528	  3.8212	   3.821	  22.845
  459	  0.0528	  3.8462	   3.846	  22.995
  462	  0.0532	  3.8712	   3.871	  23.145
  465	  0.0536	  3.8963	   3.896	  23.295
  468	  0.0540	  3.9212	   3.921	  23.445
  471	  0.0552	  3.9462	   3.946	  23.595
  474	  0.0564	  3.9712	   3.971	  23.745
  477	  0.0568	  3.9962	   3.996	  23.895
  480	  0.0572	  4.0212	   4.021	  24.045
  483	  0.0576	  4.0462	   4.046	  24.195
  486	  0.0580	  4.0712	   4.071	  24.345
  489	  0.0584	  4.0963	   4.096	  24.495
  492	  0.0588	  4.1212	   4.121	  24.645
  495	  0.0596	  4.1462	   4.146	  24.795
  498	  0.0600	  4.1700	   4.170	  24.945
  501	  0.0604	  4.1950	   4.195	  25.095
  504	  0.0612	  4.2200	   4.220	  25.245
  507	  0.0616	  4.2450	   4.245	  25.395
  510	  0.0616	  4.2700	   4.270	  25.545
  513	  0.0608	  4.2937	   4.294	  25.695
  516	  0.0628	  4.3200	   4.320	  25.845
  519	  0.0624	  4.3450	   4.345	  25.995
  522	  0.0628	  4.3700	   4.370	  26.145
  525	  0.0632	  4.3950	   4.395	  26.295
  528	  0.0644	  4.4200	   4.420	  26.445
  531	  0.0648	  4.4450	   4.445	  26.595
  534	  0.0656	  4.4700	   4.470	  26.745
  537	  0.0648	  4.4950	   4.495	  26.895
  540	  0.0652	  4.5200	   4.520	  27.045
  543	  0.0656	  4.5450	   4.545	  27.195
  546	  0.0668	  4.5700	   4.570	  27.345
  549	  0.0676	  4.5950	   4.595	  27.495
  552	  0.0680	  4.6200	   4.620	  27.645
  555	  0.0688	  4.6462	   4.646	  27.795
  558	  0.0688	  4.6712	   4.671	  27.945
  561	  0.0692	  4.6962	   4.696	  28.095
  564	  0.0700	  4.7213	   4.721	  28.245
  567	  0.0704	  4.7462	   4.746	  28.395
  570	  0.0712	  4.7712	   4.771	  28.545
  573	  0.0716	  4.7962	   4.796	  28.695
  576	  0.0716	  4.8212	   4.821	  28.845
  579	  0.0728	  4.8463	   4.846	  28.995
  582	  0.0724	  4.8712	   4.871	  29.145
  585	  0.0732	  4.8962	   4.896	  29.295
  588	  0.0740	  4.9212	   4.921	  29.445
  591	  0.0736	  4.9475	   4.947	  29.595
  594	  0.0744	  4.9713	   4.971	  29.745
  597	  0.0756	  4.9962	   4.996	  29.895
  600	  0.0760	  5.0225	   5.023	  30.045
  603	  0.0752	  5.0475	   5.047	  30.195
  606	  0.0764	  5.0725	   5.072	  30.345
  609	  0.0764	  5.0975	   5.097	  30.495
  612	  0.0772	  5.1225	   5.122	  30.645
  615	  0.0780	  5.1475	   5.148	  30.795
  618	  0.0796	  5.1725	   5.172	  30.945
  621	  0.0800	  5.1975	   5.197	  31.095
  624	  0.0800	  5.2225	   5.222	  31.245
  627	  0.0804	  5.2475	   5.247	  31.395
  630	  0.0812	  5.2725	   5.273	  31.545
  633	  0.0820	  5.2975	   5.297	  31.695
  636	  0.0820	  5.3225	   5.322	  31.845
  639	  0.0820	  5.3475	   5.347	  31.995
  642	  0.0828	  5.3725	   5.372	  32.145
  645	  0.0836	  5.3987	   5.399	  32.295
  648	  0.0836	  5.4237	   5.424	  32.445
  651	  0.0840	  5.4488	   5.449	  32.595
  654	  0.0840	  5.4738	   5.474	  32.745
  657	  0.0836	  5.4987	   5.499	  32.895
  660	  0.0852	  5.5237	   5.524	  33.045
  663	  0.0856	  5.5487	   5.549	  33.195
  666	  0.0864	  5.5750	   5.575	  33.345
  669	  0.0872	  5.6000	   5.600	  33.495
  672	  0.0876	  5.6250	   5.625	  33.645
  675	  0.0872	  5.6500	   5.650	  33.795
  678	  0.0880	  5.6750	   5.675	  33.945
  681	  0.0880	  5.7000	   5.700	  34.095
  684	  0.0892	  5.7262	   5.726	  34.245
  687	  0.0896	  5.7512	   5.751	  34.395
  690	  0.0904	  5.7762	   5.776	  34.545
  693	  0.0908	  5.8012	   5.801	  34.695
  696	  0.0908	  5.8263	   5.826	  34.845
  699	  0.0912	  5.8512	   5.851	  34.995
  702	  0.0912	  5.8762	   5.876	  35.145
  705	  0.0920	  5.9025	   5.902	  35.295
  708	  0.0924	  5.9275	   5.927	  35.445
  711	  0.0932	  5.9525	   5.952	  35.595
  714	  0.0936	  5.9775	   5.977	  35.745
  717	  0.0936	  6.0025	   6.003	  35.895
  720	  0.0944	  6.0275	   6.027	  36.045
  723	  0.0940	  6.0525	   6.052	  36.195
  726	  0.0948	  6.0787	   6.079	  36.345
  729	  0.0952	  6.1025	   6.102	  36.495
  732	  0.0948	  6.1275	   6.128	  36.645
  735	  0.0964	  6.1537	   6.154	  36.795
  738	  0.0956	  6.1788	   6.179	  36.945
  741	  0.0968	  6.2037	   6.204	  37.095
  744	  0.0968	  6.2287	   6.229	  37.245
  747	  0.0980	  6.2537	   6.254	  37.395
  750	  0.0980	  6.2787	   6.279	  37.545
  753	  0.0984	  6.3038	   6.304	  37.695
  756	  0.0988	  6.3287	   6.329	  37.845
  759	  0.0996	  6.3537	   6.354	  37.995
  762	  0.1000	  6.3787	   6.379	  38.145
  765	  0.1004	  6.4050	   6.405	  38.295
  768	  0.1008	  6.4300	   6.430	  38.445
  771	  0.1012	  6.4550	   6.455	  38.595
  774	  0.1016	  6.4800	   6.480	  38.745
  777	  0.1028	  6.5050	   6.505	  38.895
  780	  0.1028	  6.5300	   6.530	  39.045
  783	  0.1028	  6.5550	   6.555	  39.195
  786	  0.1032	  6.5812	   6.581	  39.345
  789	  0.1040	  6.6062	   6.606	  39.495
  792	  0.1044	  6.6312	   6.631	  39.645
  795	  0.1056	  6.6562	   6.656	  39.795
  798	  0.1048	  6.6812	   6.681	  39.945
  801	  0.1052	  6.7062	   6.706	  40.095
  804	  0.1056	  6.7312	   6.731	  40.245
  807	  0.1068	  6.7562	   6.756	  40.395
  810	  0.1072	  6.7812	   6.781	  40.545
  813	  0.1064	  6.8062	   6.806	  40.695
  816	  0.1072	  6.8325	   6.832	  40.845
  819	  0.1080	  6.8575	   6.858	  40.995
  822	  0.1084	  6.8825	   6.882	  41.145
  825	  0.1088	  6.9075	   6.907	  41.295
  828	  0.1096	  6.9325	   6.932	  41.445
  831	  0.1100	  6.9575	   6.957	  41.595
  834	  0.1096	  6.9825	   6.983	  41.745
  837	  0.1096	  7.0075	   7.007	  41.895
  840	  0.1100	  7.0325	   7.032	  42.045
  843	  0.1108	  7.0575	   7.057	  42.195
  846	  0.1108	  7.0825	   7.082	  42.345
  849	  0.1120	  7.1075	   7.108	  42.495
  852	  0.1120	  7.1325	   7.132	  42.645
  855	  0.1128	  7.1588	   7.159	  42.795
  858	  0.1132	  7.1825	   7.182	  42.945
  861	  0.1132	  7.2087	   7.209	  43.095
  864	  0.1140	  7.2325	   7.233	  43.245
  867	  0.1140	  7.2587	   7.259	  43.395
  870	  0.1144	  7.2838	   7.284	  43.545
  873	  0.1148	  7.3087	   7.309	  43.695
  876	  0.1152	  7.3337	   7.334	  43.845
  879	  0.1160	  7.3587	   7.359	  43.995
  882	  0.1168	  7.3837	   7.384	  44.145
  885	  0.1172	  7.4088	   7.409	  44.295
  888	  0.1168	  7.4337	   7.434	  44.445
  891	  0.1168	  7.4587	   7.459	  44.595
  894	  0.1172	  7.4837	   7.484	  44.745
  897	  0.1176	  7.5087	   7.509	  44.895
  900	  0.1180	  7.5338	   7.534	  45.045
  903	  0.1184	  7.5587	   7.559	  45.195
  906	  0.1192	  7.5837	   7.584	  45.345
  909	  0.1196	  7.6087	   7.609	  45.495
  912	  0.1204	  7.6337	   7.634	  45.645
  915	  0.1204	  7.6588	   7.659	  45.795
  918	  0.1208	  7.6837	   7.684	  45.945
  921	  0.1212	  7.7087	   7.709	  46.095
  924	  0.1212	  7.7325	   7.732	  46.245
  927	  0.1224	  7.7587	   7.759	  46.395
  930	  0.1228	  7.7838	   7.784	  46.545
  933	  0.1228	  7.8087	   7.809	  46.695
  936	  0.1232	  7.8337	   7.834	  46.845
  939	  0.1232	  7.8587	   7.859	  46.995
  942	  0.1232	  7.8837	   7.884	  47.145
  945	  0.1240	  7.9088	   7.909	  47.295
  948	  0.1240	  7.9337	   7.934	  47.445
  951	  0.1248	  7.9587	   7.959	  47.595
  954	  0.1248	  7.9837	   7.984	  47.745
  957	  0.1256	  8.0087	   8.009	  47.895
  960	  0.1260	  8.0337	   8.034	  48.045
  963	  0.1264	  8.0588	   8.059	  48.195
  966	  0.1272	  8.0837	   8.084	  48.345
  969	  0.1272	  8.1087	   8.109	  48.495
  972	  0.1280	  8.1337	   8.134	  48.645
  975	  0.1288	  8.1587	   8.159	  48.795
  978	  0.1288	  8.1838	   8.184	  48.945
  981	  0.1284	  8.2087	   8.209	  49.095
  984	  0.1296	  8.2337	   8.234	  49.245
  987	  0.1292	  8.2587	   8.259	  49.395
  990	  0.1292	  8.2837	   8.284	  49.545
  993	  0.1304	  8.3088	   8.309	  49.695
  996	  0.1300	  8.3337	   8.334	  49.845
  999	  0.1312	  8.3587	   8.359	  49.995
 1002	  0.1308	  8.3837	   8.384	  50.145
 1005	  0.1316	  8.4087	   8.409	  50.295
 1008	  0.1320	  8.4338	   8.434	  50.445
 1011	  0.1332	  8.4587	   8.459	  50.595
 1014	  0.1328	  8.4837	   8.484	  50.745
 1017	  0.1324	  8.5087	   8.509	  50.895
 1020	  0.1328	  8.5337	   8.534	  51.045
 1023	  0.1336	  8.5588	   8.559	  51.195
 1026	  0.1340	  8.5837	   8.584	  51.345
 1029	  0.1344	  8.6087	   8.609	  51.495
 1032	  0.1348	  8.6337	   8.634	  51.645
 1035	  0.1356	  8.6587	   8.659	  51.795
 1038	  0.1356	  8.6838	   8.684	  51.945
 1041	  0.1356	  8.7087	   8.709	  52.095
 1044	  0.1360	  8.7337	   8.734	  52.245
 1047	  0.1360	  8.7587	   8.759	  52.395
 1050	  0.1364	  8.7837	   8.784	  52.545
 1053	  0.1372	  8.8088	   8.809	  52.695
 1056	  0.1368	  8.8337	   8.834	  52.845
 1059	  0.1376	  8.8587	   8.859	  52.995
 1062	  0.1384	  8.8837	   8.884	  53.145
 1065	  0.1380	  8.9087	   8.909	  53.295
 1068	  0.1384	  8.9338	   8.934	  53.445
 1071	  0.1388	  8.9600	   8.960	  53.595
 1074	  0.1392	  8.9837	   8.984	  53.745
 1077	  0.1388	  9.0087	   9.009	  53.895
 1080	  0.1392	  9.0350	   9.035	  54.045
 1083	  0.1396	  9.0600	   9.060	  54.195
 1086	  0.1400	  9.0850	   9.085	  54.345
 1089	  0.1412	  9.1100	   9.110	  54.495
 1092	  0.1420	  9.1350	   9.135	  54.645
 1095	  0.1412	  9.1600	   9.160	  54.795
 1098	  0.1420	  9.1850	   9.185	  54.945
 1101	  0.1420	  9.2100	   9.210	  55.095
 1104	  0.1424	  9.2350	   9.235	  55.245
 1107	  0.1428	  9.2600	   9.260	  55.395
 1110	  0.1428	  9.2850	   9.285	  55.545
 1113	  0.1432	  9.3100	   9.310	  55.695
 1116	  0.1440	  9.3350	   9.335	  55.845
 1119	  0.1436	  9.3600	   9.360	  55.995
 1122	  0.1436	  9.3850	   9.385	  56.145
 1125	  0.1448	  9.4100	   9.410	  56.295
 1128	  0.1444	  9.4350	   9.435	  56.445
 1131	  0.1444	  9.4600	   9.460	  56.595
 1134	  0.1444	  9.4850	   9.485	  56.745
 1137	  0.1456	  9.5100	   9.510	  56.895
 1140	  0.1456	  9.5350	   9.535	  57.045
 1143	  0.1452	  9.5600	   9.560	  57.195
 1146	  0.1460	  9.5850	   9.585	  57.345
 1149	  0.1468	  9.6100	   9.610	  57.495
 1152	  0.1468	  9.6362	   9.636	  57.645
 1155	  0.1476	  9.6613	   9.661	  57.795
 1158	  0.1480	  9.6862	   9.686	  57.945
 1161	  0.1484	  9.7112	   9.711	  58.095
 1164	  0.1488	  9.7362	   9.736	  58.245
 1167	  0.1492	  9.7612	   9.761	  58.395
 1170	  0.1492	  9.7863	   9.786	  58.545
 1173	  0.1496	  9.8112	   9.811	  58.695
 1176	  0.1504	  9.8362	   9.836	  58.845
 1179	  0.1500	  9.8612	   9.861	  58.995
 1182	  0.1492	  9.8875	   9.887	  59.145
 1185	  0.1504	  9.9125	   9.912	  59.295
 1188	  0.1516	  9.9375	   9.938	  59.445
 1191	  0.1512	  9.9625	   9.962	  59.595
 1194	  0.1512	  9.9875	   9.988	  59.745
 1197	  0.1524	 10.0125	  10.012	  59.895
 1200	  0.1520	 10.0387	  10.039	  60.045
 1203	  0.1528	 10.0637	  10.064	  60.195
 1206	  0.1528	 10.0887	  10.089	  60.345
 1209	  0.1528	 10.1137	  10.114	  60.495
 1212	  0.1532	 10.1388	  10.139	  60.645
 1215	  0.1532	 10.1650	  10.165	  60.795
 1218	  0.1540	 10.1900	  10.190	  60.945
 1221	  0.1544	 10.2150	  10.215	  61.095
 1224	  0.1540	 10.2400	  10.240	  61.245
 1227	  0.1544	 10.2650	  10.265	  61.395
 1230	  0.1548	 10.2900	  10.290	  61.545
 1233	  0.1544	 10.3162	  10.316	  61.695
 1236	  0.1552	 10.3412	  10.341	  61.845
 1239	  0.1552	 10.3663	  10.366	  61.995
 1242	  0.1556	 10.3912	  10.391	  62.145
 1245	  0.1560	 10.4163	  10.416	  62.295
 1248	  0.1556	 10.4425	  10.443	  62.445
 1251	  0.1568	 10.4675	  10.467	  62.595
 1254	  0.1572	 10.4925	  10.492	  62.745
 1257	  0.1572	 10.5175	  10.517	  62.895
 1260	  0.1572	 10.5425	  10.542	  63.045
 1263	  0.1572	 10.5675	  10.568	  63.195
 1266	  0.1580	 10.5925	  10.592	  63.345
 1269	  0.1580	 10.6175	  10.617	  63.495
 1272	  0.1580	 10.6438	  10.644	  63.645
 1275	  0.1588	 10.6687	  10.669	  63.795
 1278	  0.1592	 10.6937	  10.694	  63.945
 1281	  0.1592	 10.7188	  10.719	  64.095
 1284	  0.1596	 10.7437	  10.744	  64.245
 1287	  0.1588	 10.7688	  10.769	  64.395
 1290	  0.1600	 10.7937	  10.794	  64.545
 1293	  0.1604	 10.8187	  10.819	  64.695
 1296	  0.1600	 10.8438	  10.844	  64.845
 1299	  0.1604	 10.8687	  10.869	  64.995
 1302	  0.1612	 10.8938	  10.894	  65.145
 1305	  0.1616	 10.9200	  10.920	  65.295
 1308	  0.1624	 10.9437	  10.944	  65.445
 1311	  0.1624	 10.9688	  10.969	  65.595
 1314	  0.1628	 10.9937	  10.994	  65.745
 1317	  0.1620	 11.0188	  11.019	  65.895
 1320	  0.1628	 11.0450	  11.045	  66.045
 1323	  0.1624	 11.0687	  11.069	  66.195
 1326	  0.1632	 11.0938	  11.094	  66.345
 1329	  0.1628	 11.1187	  11.119	  66.495
 1332	  0.1636	 11.1450	  11.145	  66.645
 1335	  0.1636	 11.1700	  11.170	  66.795
 1338	  0.1636	 11.1950	  11.195	  66.945
 1341	  0.1640	 11.2200	  11.220	  67.095
 1344	  0.1648	 11.2450	  11.245	  67.245
 1347	  0.1644	 11.2700	  11.270	  67.395
 1350	  0.1640	 11.2950	  11.295	  67.545
 1353	  0.1636	 11.3200	  11.320	  67.695
 1356	  0.1644	 11.3450	  11.345	  67.845
 1359	  0.1652	 11.3700	  11.370	  67.995
 1362	  0.1648	 11.3950	  11.395	  68.145
 1365	  0.1664	 11.4200	  11.420	  68.295
 1368	  0.1664	 11.4450	  11.445	  68.445
 1371	  0.1656	 11.4700	  11.470	  68.595
 1374	  0.1656	 11.4950	  11.495	  68.745
 1377	  0.1672	 11.5200	  11.520	  68.895
 1380	  0.1676	 11.5450	  11.545	  69.045
 1383	  0.1676	 11.5687	  11.569	  69.195
 1386	  0.1676	 11.5950	  11.595	  69.345
 1389	  0.1676	 11.6200	  11.620	  69.495
 1392	  0.1684	 11.6450	  11.645	  69.645
 1395	  0.1696	 11.6700	  11.670	  69.795
 1398	  0.1684	 11.6950	  11.695	  69.945
 1401	  0.1692	 11.7200	  11.720	  70.095
 1404	  0.1696	 11.7450	  11.745	  70.245
 1407	  0.1688	 11.7688	  11.769	  70.395
 1410	  0.1688	 11.7950	  11.795	  70.545
 1413	  0.1696	 11.8187	  11.819	  70.695
 1416	  0.1696	 11.8450	  11.845	  70.845
 1419	  0.1704	 11.8687	  11.869	  70.995
 1422	  0.1704	 11.8950	  11.895	  71.145
 1425	  0.1708	 11.9200	  11.920	  71.295
 1428	  0.1708	 11.9450	  11.945	  71.445
 1431	  0.1704	 11.9700	  11.970	  71.595
 1434	  0.1716	 11.9950	  11.995	  71.745
 1437	  0.1712	 12.0200	  12.020	  71.895
 1440	  0.1720	 12.0450	  12.045	  72.045
 1443	  0.1720	 12.0700	  12.070	  72.195
 1446	  0.1720	 12.0950	  12.095	  72.345
 1449	  0.1720	 12.1200	  12.120	  72.495
 1452	  0.1724	 12.1450	  12.145	  72.645
 1455	  0.1728	 12.1700	  12.170	  72.795
 1458	  0.1724	 12.1950	  12.195	  72.945
 1461	  0.1732	 12.2200	  12.220	  73.095
 1464	  0.1736	 12.2450	  12.245	  73.245
 1467	  0.1732	 12.2700	  12.270	  73.395
 1470	  0.1736	 12.2950	  12.295	  73.545
 1473	  0.1740	 12.3200	  12.320	  73.695
 1476	  0.1736	 12.3450	  12.345	  73.845
 1479	  0.1748	 12.3687	  12.369	  73.995
 1482	  0.1756	 12.3950	  12.395	  74.145
 1485	  0.1748	 12.4200	  12.420	  74.295
 1488	  0.1756	 12.4450	  12.445	  74.445
 1491	  0.1752	 12.4700	  12.470	  74.595
 1494	  0.1756	 12.4950	  12.495	  74.745
 1497	  0.1756	 12.5200	  12.520	  74.895
 1500	  0.1756	 12.5450	  12.545	  75.045
 1503	  0.1764	 12.5700	  12.570	  75.195
 1506	  0.1756	 12.5950	  12.595	  75.345
 1509	  0.1764	 12.6200	  12.620	  75.495
 1512	  0.1764	 12.6450	  12.645	  75.645
 1515	  0.1768	 12.6700	  12.670	  75.795
 1518	  0.1768	 12.6950	  12.695	  75.945
 1521	  0.1776	 12.7200	  12.720	  76.095
 1524	  0.1772	 12.7450	  12.745	  76.245
 1527	  0.1764	 12.7700	  12.770	  76.395
 1530	  0.1780	 12.7950	  12.795	  76.545
 1533	  0.1780	 12.8200	  12.820	  76.695
 1536	  0.1784	 12.8450	  12.845	  76.845
 1539	  0.1780	 12.8700	  12.870	  76.995
 1542	  0.1784	 12.8950	  12.895	  77.145
 1545	  0.1788	 12.9200	  12.920	  77.295
 1548	  0.1800	 12.9450	  12.945	  77.445
 1551	  0.1796	 12.9700	  12.970	  77.595
 1554	  0.1796	 12.9950	  12.995	  77.745
 1557	  0.1792	 13.0200	  13.020	  77.895
 1560	  0.1804	 13.0450	  13.045	  78.045
 1563	  0.1804	 13.0700	  13.070	  78.195
 1566	  0.1800	 13.0962	  13.096	  78.345
 1569	  0.1808	 13.1213	  13.121	  78.495
 1572	  0.1816	 13.1462	  13.146	  78.645
 1575	  0.1808	 13.1712	  13.171	  78.795
 1578	  0.1812	 13.1962	  13.196	  78.945
 1581	  0.1816	 13.2212	  13.221	  79.095
 1584	  0.1812	 13.2463	  13.246	  79.245
 1587	  0.1820	 13.2712	  13.271	  79.395
 1590	  0.1816	 13.2962	  13.296	  79.545
 1593	  0.1828	 13.3212	  13.321	  79.695
 1596	  0.1824	 13.3450	  13.345	  79.845
 1599	  0.1816	 13.3700	  13.370	  79.995
 1602	  0.1824	 13.3950	  13.395	  80.145
 1605	  0.1824	 13.4212	  13.421	  80.295
 1608	  0.1832	 13.4450	  13.445	  80.445
 1611	  0.1836	 13.4712	  13.471	  80.595
 1614	  0.1844	 13.4963	  13.496	  80.745
 1617	  0.1840	 13.5212	  13.521	  80.895
 1620	  0.1840	 13.5462	  13.546	  81.045
 1623	  0.1840	 13.5712	  13.571	  81.195
 1626	  0.1852	 13.5962	  13.596	  81.345
 1629	  0.1848	 13.6213	  13.621	  81.495
 1632	  0.1844	 13.6462	  13.646	  81.645
 1635	  0.1844	 13.6712	  13.671	  81.795
 1638	  0.1840	 13.6962	  13.696	  81.945
 1641	  0.1852	 13.7212	  13.721	  82.095
 1644	  0.1852	 13.7463	  13.746	  82.245
 1647	  0.1856	 13.7725	  13.773	  82.395
 1650	  0.1868	 13.7975	  13.797	  82.545
 1653	  0.1864	 13.8225	  13.822	  82.695
 1656	  0.1868	 13.8475	  13.847	  82.845
 1659	  0.1864	 13.8725	  13.872	  82.995
 1662	  0.1860	 13.8975	  13.898	  83.145
 1665	  0.1864	 13.9225	  13.922	  83.295
 1668	  0.1868	 13.9475	  13.947	  83.445
 1671	  0.1864	 13.9738	  13.974	  83.595
 1674	  0.1868	 13.9987	  13.999	  83.745
 1677	  0.1876	 14.0237	  14.024	  83.895
 1680	  0.1868	 14.0487	  14.049	  84.045
 1683	  0.1876	 14.0737	  14.074	  84.195
 1686	  0.1872	 14.0988	  14.099	  84.345
 1689	  0.1880	 14.1237	  14.124	  84.495
 1692	  0.1884	 14.1487	  14.149	  84.645
 1695	  0.1888	 14.1737	  14.174	  84.795
 1698	  0.1888	 14.2000	  14.200	  84.945
 1701	  0.1888	 14.2250	  14.225	  85.095
 1704	  0.1896	 14.2500	  14.250	  85.245
 1707	  0.1896	 14.2750	  14.275	  85.395
 1710	  0.1900	 14.3000	  14.300	  85.545
 1713	  0.1896	 14.3250	  14.325	  85.695
 1716	  0.1904	 14.3500	  14.350	  85.845
 1719	  0.1904	 14.3762	  14.376	  85.995
 1722	  0.1908	 14.4012	  14.401	  86.145
 1725	  0.1900	 14.4262	  14.426	  86.295
 1728	  0.1912	 14.4513	  14.451	  86.445
 1731	  0.1912	 14.4762	  14.476	  86.595
 1734	  0.1916	 14.5012	  14.501	  86.745
 1737	  0.1912	 14.5262	  14.526	  86.895
 1740	  0.1912	 14.5512	  14.551	  87.045
 1743	  0.1912	 14.5763	  14.576	  87.195
 1746	  0.1912	 14.6012	  14.601	  87.345
 1749	  0.1908	 14.6262	  14.626	  87.495
 1752	  0.1912	 14.6512	  14.651	  87.645
 1755	  0.1916	 14.6775	  14.677	  87.795
 1758	  0.1920	 14.7013	  14.701	  87.945
 1761	  0.1924	 14.7275	  14.727	  88.095
 1764	  0.1920	 14.7525	  14.752	  88.245
 1767	  0.1924	 14.7775	  14.777	  88.395
 1770	  0.1920	 14.8025	  14.802	  88.545
 1773	  0.1924	 14.8275	  14.827	  88.695
 1776	  0.1924	 14.8525	  14.852	  88.845
 1779	  0.1924	 14.8775	  14.877	  88.995
 1782	  0.1924	 14.9025	  14.902	  89.145
 1785	  0.1920	 14.9275	  14.927	  89.295
 1788	  0.1932	 14.9525	  14.952	  89.445
 1791	  0.1936	 14.9775	  14.977	  89.595
 1794	  0.1944	 15.0025	  15.002	  89.745
 1797	  0.1936	 15.0275	  15.027	  89.895
 1800	  0.1940	 15.0538	  15.054	  90.045
 1803	  0.1944	 15.0787	  15.079	  90.195
 1806	  0.1944	 15.1037	  15.104	  90.345
 1809	  0.1944	 15.1287	  15.129	  90.495
 1812	  0.1952	 15.1537	  15.154	  90.645
 1815	  0.1952	 15.1788	  15.179	  90.795
 1818	  0.1952	 15.2037	  15.204	  90.945
 1821	  0.1948	 15.2287	  15.229	  91.095
 1824	  0.1956	 15.2537	  15.254	  91.245
 1827	  0.1952	 15.2787	  15.279	  91.395
 1830	  0.1960	 15.3038	  15.304	  91.545
 1833	  0.1968	 15.3287	  15.329	  91.695
 1836	  0.1964	 15.3550	  15.355	  91.845
 1839	  0.1956	 15.3787	  15.379	  91.995
 1842	  0.1964	 15.4050	  15.405	  92.145
 1845	  0.1964	 15.4300	  15.430	  92.295
 1848	  0.1972	 15.4550	  15.455	  92.445
 1851	  0.1968	 15.4800	  15.480	  92.595
 1854	  0.1972	 15.5050	  15.505	  92.745
 1857	  0.1972	 15.5300	  15.530	  92.895
 1860	  0.1976	 15.5550	  15.555	  93.045
 1863	  0.1976	 15.5800	  15.580	  93.195
 1866	  0.1976	 15.6050	  15.605	  93.345
 1869	  0.1972	 15.6300	  15.630	  93.495
 1872	  0.1976	 15.6550	  15.655	  93.645
 1875	  0.1984	 15.6800	  15.680	  93.795
 1878	  0.1984	 15.7050	  15.705	  93.945
 1881	  0.1984	 15.7300	  15.730	  94.095
 1884	  0.1988	 15.7550	  15.755	  94.245
 1887	  0.1992	 15.7800	  15.780	  94.395
 1890	  0.1992	 15.8050	  15.805	  94.545
 1893	  0.1992	 15.8300	  15.830	  94.695
 1896	  0.1996	 15.8550	  15.855	  94.845
 1899	  0.2000	 15.8800	  15.880	  94.995
 1902	  0.1992	 15.9062	  15.906	  95.145
 1905	  0.2004	 15.9312	  15.931	  95.295
 1908	  0.2000	 15.9550	  15.955	  95.445
 1911	  0.2000	 15.9800	  15.980	  95.595
 1914	  0.2004	 16.0050	  16.005	  95.745
 1917	  0.2008	 16.0312	  16.031	  95.895
 1920	  0.2008	 16.0562	  16.056	  96.045
 1923	  0.2008	 16.0812	  16.081	  96.195
 1926	  0.2004	 16.1062	  16.106	  96.345
 1929	  0.2008	 16.1313	  16.131	  96.495
 1932	  0.2012	 16.1562	  16.156	  96.645
 1935	  0.2008	 16.1812	  16.181	  96.795
 1938	  0.2012	 16.2062	  16.206	  96.945
 1941	  0.2012	 16.2312	  16.231	  97.095
 1944	  0.2016	 16.2563	  16.256	  97.245
 1947	  0.2024	 16.2812	  16.281	  97.395
 1950	  0.2020	 16.3062	  16.306	  97.545
 1953	  0.2020	 16.3312	  16.331	  97.695
 1956	  0.2020	 16.3562	  16.356	  97.845
 1959	  0.2016	 16.3813	  16.381	  97.995
 1962	  0.2016	 16.4062	  16.406	  98.145
 1965	  0.2024	 16.4312	  16.431	  98.295
 1968	  0.2028	 16.4575	  16.458	  98.445
 1971	  0.2028	 16.4812	  16.481	  98.595
 1974	  0.2032	 16.5063	  16.506	  98.745
 1977	  0.2032	 16.5312	  16.531	  98.895
 1980	  0.2032	 16.5575	  16.557	  99.045
 1983	  0.2036	 16.5825	  16.583	  99.195
 1986	  0.2036	 16.6075	  16.608	  99.345
 1989	  0.2044	 16.6325	  16.632	  99.495
 1992	  0.2048	 16.6575	  16.657	  99.645
 1995	  0.2048	 16.6825	  16.682	  99.795
 1998	  0.2048	 16.7075	  16.708	  99.945
 2001	  0.2048	 16.7325	  16.733	 100.095
 2004	  0.2056	 16.7575	  16.757	 100.245
 2007	  0.2052	 16.7825	  16.782	 100.395
 2010	  0.2044	 16.8075	  16.807	 100.545
 2013	  0.2052	 16.8325	  16.833	 100.695
 2016	  0.2060	 16.8575	  16.858	 100.845
 2019	  0.2060	 16.8825	  16.882	 100.995
 2022	  0.2052	 16.9075	  16.907	 101.145
 2025	  0.2052	 16.9325	  16.932	 101.295
 2028	  0.2064	 16.9575	  16.958	 101.445
 2031	  0.2060	 16.9825	  16.983	 101.595
 2034	  0.2068	 17.0075	  17.007	 101.745
 2037	  0.2072	 17.0325	  17.032	 101.895
 2040	  0.2072	 17.0575	  17.057	 102.045
 2043	  0.2064	 17.0825	  17.083	 102.195
 2046	  0.2068	 17.1087	  17.109	 102.345
 2049	  0.2072	 17.1337	  17.134	 102.495
 2052	  0.2072	 17.1588	  17.159	 102.645
 2055	  0.2072	 17.1838	  17.184	 102.795
 2058	  0.2072	 17.2087	  17.209	 102.945
 2061	  0.2072	 17.2337	  17.234	 103.095
 2064	  0.2080	 17.2587	  17.259	 103.245
 2067	  0.2084	 17.2838	  17.284	 103.395
 2070	  0.2080	 17.3088	  17.309	 103.545
 2073	  0.2080	 17.3337	  17.334	 103.695
 2076	  0.2084	 17.3587	  17.359	 103.845
 2079	  0.2088	 17.3837	  17.384	 103.995
 2082	  0.2092	 17.4088	  17.409	 104.145
 2085	  0.2084	 17.4350	  17.435	 104.295
 2088	  0.2076	 17.4600	  17.460	 104.445
 2091	  0.2092	 17.4850	  17.485	 104.595
 2094	  0.2080	 17.5100	  17.510	 104.745
 2097	  0.2092	 17.5350	  17.535	 104.895
 2100	  0.2084	 17.5600	  17.560	 105.045
 2103	  0.2084	 17.5850	  17.585	 105.195
 2106	  0.2092	 17.6100	  17.610	 105.345
 2109	  0.2092	 17.6350	  17.635	 105.495
 2112	  0.2092	 17.6600	  17.660	 105.645
 2115	  0.2100	 17.6850	  17.685	 105.795
 2118	  0.2100	 17.7113	  17.711	 105.945
 2121	  0.2104	 17.7362	  17.736	 106.095
 2124	  0.2092	 17.7612	  17.761	 106.245
 2127	  0.2096	 17.7862	  17.786	 106.395
 2130	  0.2100	 17.8112	  17.811	 106.545
 2133	  0.2100	 17.8363	  17.836	 106.695
 2136	  0.2104	 17.8600	  17.860	 106.845
 2139	  0.2108	 17.8850	  17.885	 106.995
 2142	  0.2108	 17.9100	  17.910	 107.145
 2145	  0.2108	 17.9350	  17.935	 107.295
 2148	  0.2108	 17.9600	  17.960	 107.445
 2151	  0.2108	 17.9862	  17.986	 107.595
 2154	  0.2116	 18.0100	  18.010	 107.745
 2157	  0.2116	 18.0362	  18.036	 107.895
 2160	  0.2116	 18.0612	  18.061	 108.045
 2163	  0.2112	 18.0863	  18.086	 108.195
 2166	  0.2116	 18.1112	  18.111	 108.345
 2169	  0.2120	 18.1362	  18.136	 108.495
 2172	  0.2124	 18.1612	  18.161	 108.645
 2175	  0.2124	 18.1862	  18.186	 108.795
 2178	  0.2124	 18.2113	  18.211	 108.945
 2181	  0.2124	 18.2375	  18.237	 109.095
 2184	  0.2120	 18.2625	  18.262	 109.245
 2187	  0.2128	 18.2875	  18.288	 109.395
 2190	  0.2128	 18.3125	  18.312	 109.545
 2193	  0.2132	 18.3375	  18.337	 109.695
 2196	  0.2132	 18.3625	  18.362	 109.845
 2199	  0.2132	 18.3875	  18.387	 109.995
 2202	  0.2140	 18.4125	  18.413	 110.145
 2205	  0.2140	 18.4375	  18.438	 110.295
 2208	  0.2140	 18.4625	  18.462	 110.445
 2211	  0.2136	 18.4888	  18.489	 110.595
 2214	  0.2148	 18.5138	  18.514	 110.745
 2217	  0.2140	 18.5387	  18.539	 110.895
 2220	  0.2148	 18.5637	  18.564	 111.045
 2223	  0.2140	 18.5887	  18.589	 111.195
 2226	  0.2152	 18.6138	  18.614	 111.345
 2229	  0.2152	 18.6388	  18.639	 111.495
 2232	  0.2152	 18.6637	  18.664	 111.645
 2235	  0.2144	 18.6900	  18.690	 111.795
 2238	  0.2152	 18.7137	  18.714	 111.945
 2241	  0.2152	 18.7400	  18.740	 112.095
 2244	  0.2144	 18.7650	  18.765	 112.245
 2247	  0.2144	 18.7900	  18.790	 112.395
 2250	  0.2148	 18.8150	  18.815	 112.545
 2253	  0.2160	 18.8400	  18.840	 112.695
 2256	  0.2160	 18.8650	  18.865	 112.845
 2259	  0.2164	 18.8900	  18.890	 112.995
 2262	  0.2172	 18.9150	  18.915	 113.145
 2265	  0.2164	 18.9400	  18.940	 113.295
 2268	  0.2164	 18.9650	  18.965	 113.445
 2271	  0.2164	 18.9900	  18.990	 113.595
 2274	  0.2164	 19.0162	  19.016	 113.745
 2277	  0.2164	 19.0400	  19.040	 113.895
 2280	  0.2160	 19.0662	  19.066	 114.045
 2283	  0.2172	 19.0912	  19.091	 114.195
 2286	  0.2168	 19.1162	  19.116	 114.345
 2289	  0.2176	 19.1412	  19.141	 114.495
 2292	  0.2168	 19.1663	  19.166	 114.645
 2295	  0.2168	 19.1912	  19.191	 114.795
 2298	  0.2172	 19.2162	  19.216	 114.945
 2301	  0.2180	 19.2412	  19.241	 115.095
 2304	  0.2180	 19.2662	  19.266	 115.245
 2307	  0.2172	 19.2913	  19.291	 115.395
 2310	  0.2176	 19.3162	  19.316	 115.545
 2313	  0.2180	 19.3412	  19.341	 115.695
 2316	  0.2180	 19.3662	  19.366	 115.845
 2319	  0.2188	 19.3912	  19.391	 115.995
 2322	  0.2188	 19.4163	  19.416	 116.145
 2325	  0.2184	 19.4412	  19.441	 116.295
 2328	  0.2184	 19.4662	  19.466	 116.445
 2331	  0.2184	 19.4912	  19.491	 116.595
 2334	  0.2188	 19.5162	  19.516	 116.745
 2337	  0.2188	 19.5413	  19.541	 116.895
 2340	  0.2196	 19.5662	  19.566	 117.045
 2343	  0.2196	 19.5912	  19.591	 117.195
 2346	  0.2196	 19.6162	  19.616	 117.345
 2349	  0.2188	 19.6412	  19.641	 117.495
 2352	  0.2200	 19.6663	  19.666	 117.645
 2355	  0.2200	 19.6912	  19.691	 117.795
 2358	  0.2200	 19.7162	  19.716	 117.945
 2361	  0.2200	 19.7412	  19.741	 118.095
 2364	  0.2200	 19.7662	  19.766	 118.245
 2367	  0.2204	 19.7913	  19.791	 118.395
 2370	  0.2204	 19.8162	  19.816	 118.545
 2373	  0.2204	 19.8412	  19.841	 118.695
 2376	  0.2204	 19.8662	  19.866	 118.845
 2379	  0.2208	 19.8912	  19.891	 118.995
 2382	  0.2212	 19.9175	  19.917	 119.145
 2385	  0.2216	 19.9425	  19.942	 119.295
 2388	  0.2216	 19.9675	  19.967	 119.445
 2391	  0.2208	 19.9925	  19.993	 119.595
 2394	  0.2212	 20.0175	  20.017	 119.745
 2397	  0.2220	 20.0425	  20.042	 119.895
 2400	  0.2224	 20.0675	  20.067	 120.045
 2403	  0.2220	 20.0925	  20.092	 120.195
 2406	  0.2224	 20.1175	  20.118	 120.345
 2409	  0.2224	 20.1425	  20.142	 120.495
 2412	  0.2224	 20.1675	  20.167	 120.645
 2415	  0.2224	 20.1925	  20.192	 120.795
 2418	  0.2228	 20.2175	  20.217	 120.945
 2421	  0.2228	 20.2425	  20.243	 121.095
 2424	  0.2228	 20.2687	  20.269	 121.245
 2427	  0.2232	 20.2937	  20.294	 121.395
 2430	  0.2232	 20.3188	  20.319	 121.545
 2433	  0.2232	 20.3438	  20.344	 121.695
 2436	  0.2232	 20.3687	  20.369	 121.845
 2439	  0.2228	 20.3937	  20.394	 121.995
 2442	  0.2240	 20.4187	  20.419	 122.145
 2445	  0.2236	 20.4438	  20.444	 122.295
 2448	  0.2236	 20.4688	  20.469	 122.445
 2451	  0.2236	 20.4937	  20.494	 122.595
 2454	  0.2236	 20.5187	  20.519	 122.745
 2457	  0.2244	 20.5437	  20.544	 122.895
 2460	  0.2244	 20.5700	  20.570	 123.045
 2463	  0.2244	 20.5950	  20.595	 123.195
 2466	  0.2244	 20.6200	  20.620	 123.345
 2469	  0.2248	 20.6450	  20.645	 123.495
 2472	  0.2248	 20.6687	  20.669	 123.645
 2475	  0.2252	 20.6938	  20.694	 123.795
 2478	  0.2244	 20.7188	  20.719	 123.945
 2481	  0.2248	 20.7450	  20.745	 124.095
 2484	  0.2252	 20.7700	  20.770	 124.245
 2487	  0.2252	 20.7950	  20.795	 124.395
 2490	  0.2252	 20.8200	  20.820	 124.545
 2493	  0.2248	 20.8438	  20.844	 124.695
 2496	  0.2248	 20.8700	  20.870	 124.845
 2499	  0.2252	 20.8937	  20.894	 124.995
 2502	  0.2252	 20.9187	  20.919	 125.145
 2505	  0.2252	 20.9438	  20.944	 125.295
 2508	  0.2248	 20.9688	  20.969	 125.445
 2511	  0.2252	 20.9937	  20.994	 125.595
 2514	  0.2248	 21.0187	  21.019	 125.745
 2517	  0.2252	 21.0437	  21.044	 125.895
 2520	  0.2252	 21.0688	  21.069	 126.045
 2523	  0.2260	 21.0938	  21.094	 126.195
 2526	  0.2256	 21.1187	  21.119	 126.345
 2529	  0.2252	 21.1437	  21.144	 126.495
 2532	  0.2260	 21.1687	  21.169	 126.645
 2535	  0.2256	 21.1938	  21.194	 126.795
 2538	  0.2260	 21.2188	  21.219	 126.945
 2541	  0.2264	 21.2437	  21.244	 127.095
 2544	  0.2272	 21.2687	  21.269	 127.245
 2547	  0.2264	 21.2937	  21.294	 127.395
 2550	  0.2268	 21.3188	  21.319	 127.545
 2553	  0.2268	 21.3438	  21.344	 127.695
 2556	  0.2268	 21.3687	  21.369	 127.845
 2559	  0.2268	 21.3937	  21.394	 127.995
 2562	  0.2268	 21.4187	  21.419	 128.145
 2565	  0.2276	 21.4450	  21.445	 128.295
 2568	  0.2272	 21.4700	  21.470	 128.445
 2571	  0.2272	 21.4950	  21.495	 128.595
 2574	  0.2276	 21.5200	  21.520	 128.745
 2577	  0.2280	 21.5450	  21.545	 128.895
 2580	  0.2280	 21.5700	  21.570	 129.045
 2583	  0.2280	 21.5950	  21.595	 129.195
 2586	  0.2288	 21.6200	  21.620	 129.345
 2589	  0.2292	 21.6450	  21.645	 129.495
 2592	  0.2296	 21.6700	  21.670	 129.645
 2595	  0.2296	 21.6950	  21.695	 129.795
 2598	  0.2300	 21.7200	  21.720	 129.945
 2601	  0.2296	 21.7450	  21.745	 130.095
 2604	  0.2296	 21.7700	  21.770	 130.245
 2607	  0.2296	 21.7950	  21.795	 130.395
 2610	  0.2288	 21.8200	  21.820	 130.545
 2613	  0.2292	 21.8462	  21.846	 130.695
 2616	  0.2288	 21.8713	  21.871	 130.845
 2619	  0.2296	 21.8962	  21.896	 130.995
 2622	  0.2288	 21.9212	  21.921	 131.145
 2625	  0.2296	 21.9462	  21.946	 131.295
 2628	  0.2300	 21.9712	  21.971	 131.445
 2631	  0.2300	 21.9963	  21.996	 131.595
 2634	  0.2300	 22.0212	  22.021	 131.745
 2637	  0.2308	 22.0462	  22.046	 131.895
 2640	  0.2304	 22.0712	  22.071	 132.045
 2643	  0.2304	 22.0962	  22.096	 132.195
 2646	  0.2296	 22.1213	  22.121	 132.345
 2649	  0.2308	 22.1462	  22.146	 132.495
 2652	  0.2304	 22.1712	  22.171	 132.645
 2655	  0.2312	 22.1962	  22.196	 132.795
 2658	  0.2308	 22.2212	  22.221	 132.945
 2661	  0.2308	 22.2475	  22.247	 133.095
 2664	  0.2308	 22.2725	  22.272	 133.245
 2667	  0.2316	 22.2975	  22.297	 133.395
 2670	  0.2320	 22.3225	  22.323	 133.545
 2673	  0.2320	 22.3475	  22.347	 133.695
 2676	  0.2320	 22.3725	  22.372	 133.845
 2679	  0.2328	 22.3975	  22.397	 133.995
 2682	  0.2316	 22.4225	  22.422	 134.145
 2685	  0.2328	 22.4487	  22.449	 134.295
 2688	  0.2320	 22.4737	  22.474	 134.445
 2691	  0.2320	 22.4987	  22.499	 134.595
 2694	  0.2320	 22.5238	  22.524	 134.745
 2697	  0.2316	 22.5487	  22.549	 134.895
 2700	  0.2316	 22.5737	  22.574	 135.045
 2703	  0.2316	 22.5987	  22.599	 135.195
 2706	  0.2316	 22.6237	  22.624	 135.345
 2709	  0.2316	 22.6488	  22.649	 135.495
 2712	  0.2328	 22.6737	  22.674	 135.645
 2715	  0.2332	 22.7000	  22.700	 135.795
 2718	  0.2324	 22.7250	  22.725	 135.945
 2721	  0.2328	 22.7500	  22.750	 136.095
 2724	  0.2336	 22.7750	  22.775	 136.245
 2727	  0.2328	 22.8000	  22.800	 136.395
 2730	  0.2332	 22.8250	  22.825	 136.545
 2733	  0.2328	 22.8500	  22.850	 136.695
 2736	  0.2336	 22.8750	  22.875	 136.845
 2739	  0.2340	 22.9000	  22.900	 136.995
 2742	  0.2332	 22.9250	  22.925	 137.145
 2745	  0.2328	 22.9500	  22.950	 137.295
 2748	  0.2336	 22.9762	  22.976	 137.445
 2751	  0.2340	 23.0012	  23.001	 137.595
 2754	  0.2336	 23.0262	  23.026	 137.745
 2757	  0.2344	 23.0512	  23.051	 137.895
 2760	  0.2340	 23.0763	  23.076	 138.045
 2763	  0.2336	 23.1012	  23.101	 138.195
 2766	  0.2336	 23.1262	  23.126	 138.345
 2769	  0.2348	 23.1512	  23.151	 138.495
 2772	  0.2348	 23.1762	  23.176	 138.645
 2775	  0.2348	 23.2013	  23.201	 138.795
 2778	  0.2348	 23.2262	  23.226	 138.945
 2781	  0.2348	 23.2525	  23.252	 139.095
 2784	  0.2348	 23.2775	  23.278	 139.245
 2787	  0.2344	 23.3025	  23.302	 139.395
 2790	  0.2352	 23.3275	  23.327	 139.545
 2793	  0.2356	 23.3525	  23.352	 139.695
 2796	  0.2352	 23.3775	  23.377	 139.845
 2799	  0.2356	 23.4025	  23.403	 139.995
 2802	  0.2356	 23.4275	  23.427	 140.145
 2805	  0.2360	 23.4525	  23.452	 140.295
 2808	  0.2352	 23.4775	  23.477	 140.445
 2811	  0.2356	 23.5025	  23.502	 140.595
 2814	  0.2360	 23.5275	  23.528	 140.745
 2817	  0.2356	 23.5525	  23.552	 140.895
 2820	  0.2360	 23.5775	  23.577	 141.045
 2823	  0.2356	 23.6025	  23.602	 141.195
 2826	  0.2364	 23.6287	  23.629	 141.345
 2829	  0.2364	 23.6537	  23.654	 141.495
 2832	  0.2360	 23.6787	  23.679	 141.645
 2835	  0.2356	 23.7037	  23.704	 141.795
 2838	  0.2352	 23.7288	  23.729	 141.945
 2841	  0.2352	 23.7537	  23.754	 142.095
 2844	  0.2364	 23.7787	  23.779	 142.245
 2847	  0.2364	 23.8037	  23.804	 142.395
 2850	  0.2364	 23.8287	  23.829	 142.545
 2853	  0.2364	 23.8538	  23.854	 142.695
 2856	  0.2368	 23.8787	  23.879	 142.845
 2859	  0.2372	 23.9037	  23.904	 142.995
 2862	  0.2364	 23.9287	  23.929	 143.145
 2865	  0.2364	 23.9537	  23.954	 143.295
 2868	  0.2364	 23.9788	  23.979	 143.445
 2871	  0.2372	 24.0037	  24.004	 143.595
 2874	  0.2372	 24.0287	  24.029	 143.745
 2877	  0.2368	 24.0537	  24.054	 143.895
 2880	  0.2372	 24.0787	  24.079	 144.045
 2883	  0.2380	 24.1038	  24.104	 144.195
 2886	  0.2380	 24.1287	  24.129	 144.345
 2889	  0.2380	 24.1537	  24.154	 144.495
 2892	  0.2384	 24.1787	  24.179	 144.645
 2895	  0.2376	 24.2037	  24.204	 144.795
 2898	  0.2380	 24.2288	  24.229	 144.945
 2901	  0.2376	 24.2537	  24.254	 145.095
 2904	  0.2380	 24.2787	  24.279	 145.245
 2907	  0.2380	 24.3037	  24.304	 145.395
 2910	  0.2384	 24.3287	  24.329	 145.545
 2913	  0.2384	 24.3538	  24.354	 145.695
 2916	  0.2384	 24.3787	  24.379	 145.845
 2919	  0.2384	 24.4037	  24.404	 145.995
 2922	  0.2388	 24.4287	  24.429	 146.145
 2925	  0.2388	 24.4537	  24.454	 146.295
 2928	  0.2384	 24.4788	  24.479	 146.445
 2931	  0.2384	 24.5037	  24.504	 146.595
 2934	  0.2384	 24.5287	  24.529	 146.745
 2937	  0.2388	 24.5537	  24.554	 146.895
 2940	  0.2388	 24.5787	  24.579	 147.045
 2943	  0.2388	 24.6038	  24.604	 147.195
 2946	  0.2388	 24.6287	  24.629	 147.345
 2949	  0.2388	 24.6537	  24.654	 147.495
 2952	  0.2384	 24.6800	  24.680	 147.645
 2955	  0.2388	 24.7050	  24.705	 147.795
 2958	  0.2396	 24.7288	  24.729	 147.945
 2961	  0.2400	 24.7537	  24.754	 148.095
 2964	  0.2396	 24.7787	  24.779	 148.245
 2967	  0.2396	 24.8037	  24.804	 148.395
 2970	  0.2396	 24.8287	  24.829	 148.545
 2973	  0.2400	 24.8538	  24.854	 148.695
 2976	  0.2400	 24.8787	  24.879	 148.845
 2979	  0.2408	 24.9037	  24.904	 148.995
 2982	  0.2404	 24.9287	  24.929	 149.145
 2985	  0.2404	 24.9537	  24.954	 149.295
 2988	  0.2404	 24.9788	  24.979	 149.445
 2991	  0.2404	 25.0037	  25.004	 149.595
 2994	  0.2408	 25.0287	  25.029	 149.745
 2997	  0.2408	 25.0537	  25.054	 149.895
 3000	  0.2404	 25.0787	  25.079	 150.045
 3003	  0.2404	 25.1038	  25.104	 150.195
 3006	  0.2420	 25.1287	  25.129	 150.345
 3009	  0.2408	 25.1537	  25.154	 150.495
 3012	  0.2408	 25.1787	  25.179	 150.645
 3015	  0.2416	 25.2037	  25.204	 150.795
 3018	  0.2408	 25.2288	  25.229	 150.945
 3021	  0.2416	 25.2537	  25.254	 151.095
 3024	  0.2412	 25.2787	  25.279	 151.245
 3027	  0.2424	 25.3037	  25.304	 151.395
 3030	  0.2408	 25.3300	  25.330	 151.545
 3033	  0.2416	 25.3550	  25.355	 151.695
 3036	  0.2412	 25.3800	  25.380	 151.845
 3039	  0.2412	 25.4050	  25.405	 151.995
 3042	  0.2412	 25.4300	  25.430	 152.145
 3045	  0.2416	 25.4550	  25.455	 152.295
 3048	  0.2420	 25.4800	  25.480	 152.445
 3051	  0.2416	 25.5050	  25.505	 152.595
 3054	  0.2420	 25.5300	  25.530	 152.745
 3057	  0.2416	 25.5550	  25.555	 152.895
 3060	  0.2416	 25.5800	  25.580	 153.045
 3063	  0.2424	 25.6050	  25.605	 153.195
 3066	  0.2424	 25.6300	  25.630	 153.345
 3069	  0.2416	 25.6550	  25.655	 153.495
 3072	  0.2420	 25.6800	  25.680	 153.645
 3075	  0.2424	 25.7062	  25.706	 153.795
 3078	  0.2428	 25.7312	  25.731	 153.945
 3081	  0.2420	 25.7562	  25.756	 154.095
 3084	  0.2424	 25.7812	  25.781	 154.245
 3087	  0.2428	 25.8062	  25.806	 154.395
 3090	  0.2432	 25.8312	  25.831	 154.545
 3093	  0.2428	 25.8562	  25.856	 154.695
 3096	  0.2428	 25.8812	  25.881	 154.845
 3099	  0.2420	 25.9062	  25.906	 154.995
 3102	  0.2428	 25.9325	  25.932	 155.145
 3105	  0.2424	 25.9575	  25.957	 155.295
 3108	  0.2432	 25.9825	  25.983	 155.445
 3111	  0.2428	 26.0075	  26.007	 155.595
 3114	  0.2428	 26.0325	  26.032	 155.745
 3117	  0.2436	 26.0575	  26.057	 155.895
 3120	  0.2428	 26.0825	  26.082	 156.045
 3123	  0.2436	 26.1075	  26.108	 156.195
 3126	  0.2440	 26.1325	  26.132	 156.345
 3129	  0.2436	 26.1587	  26.159	 156.495
 3132	  0.2440	 26.1838	  26.184	 156.645
 3135	  0.2440	 26.2087	  26.209	 156.795
 3138	  0.2432	 26.2337	  26.234	 156.945
 3141	  0.2444	 26.2587	  26.259	 157.095
 3144	  0.2436	 26.2837	  26.284	 157.245
 3147	  0.2444	 26.3100	  26.310	 157.395
 3150	  0.2444	 26.3350	  26.335	 157.545
 3153	  0.2436	 26.3600	  26.360	 157.695
 3156	  0.2444	 26.3850	  26.385	 157.845
 3159	  0.2440	 26.4100	  26.410	 157.995
 3162	  0.2444	 26.4350	  26.435	 158.145
 3165	  0.2448	 26.4600	  26.460	 158.295
 3168	  0.2448	 26.4862	  26.486	 158.445
 3171	  0.2452	 26.5112	  26.511	 158.595
 3174	  0.2456	 26.5362	  26.536	 158.745
 3177	  0.2456	 26.5612	  26.561	 158.895
 3180	  0.2464	 26.5863	  26.586	 159.045
 3183	  0.2460	 26.6112	  26.611	 159.195
 3186	  0.2452	 26.6362	  26.636	 159.345
 3189	  0.2460	 26.6612	  26.661	 159.495
 3192	  0.2456	 26.6875	  26.688	 159.645
 3195	  0.2456	 26.7125	  26.712	 159.795
 3198	  0.2456	 26.7375	  26.737	 159.945
 3201	  0.2464	 26.7625	  26.762	 160.095
 3204	  0.2460	 26.7875	  26.787	 160.245
 3207	  0.2464	 26.8125	  26.812	 160.395
 3210	  0.2460	 26.8387	  26.839	 160.545
 3213	  0.2468	 26.8637	  26.864	 160.695
 3216	  0.2460	 26.8888	  26.889	 160.845
 3219	  0.2460	 26.9137	  26.914	 160.995
 3222	  0.2452	 26.9387	  26.939	 161.145
 3225	  0.2460	 26.9637	  26.964	 161.295
 3228	  0.2464	 26.9887	  26.989	 161.445
 3231	  0.2468	 27.0138	  27.014	 161.595
 3234	  0.2472	 27.0387	  27.039	 161.745
 3237	  0.2472	 27.0650	  27.065	 161.895
 3240	  0.2476	 27.0900	  27.090	 162.045
 3243	  0.2472	 27.1150	  27.115	 162.195
 3246	  0.2480	 27.1400	  27.140	 162.345
 3249	  0.2476	 27.1650	  27.165	 162.495
 3252	  0.2480	 27.1900	  27.190	 162.645
 3255	  0.2472	 27.2150	  27.215	 162.795
 3258	  0.2472	 27.2400	  27.240	 162.945
 3261	  0.2476	 27.2650	  27.265	 163.095
 3264	  0.2476	 27.2900	  27.290	 163.245
 3267	  0.2480	 27.3150	  27.315	 163.395
 3270	  0.2476	 27.3412	  27.341	 163.545
 3273	  0.2476	 27.3662	  27.366	 163.695
 3276	  0.2484	 27.3912	  27.391	 163.845
 3279	  0.2480	 27.4163	  27.416	 163.995
 3282	  0.2484	 27.4400	  27.440	 164.145
 3285	  0.2488	 27.4662	  27.466	 164.295
 3288	  0.2484	 27.4912	  27.491	 164.445
 3291	  0.2484	 27.5162	  27.516	 164.595
 3294	  0.2484	 27.5413	  27.541	 164.745
 3297	  0.2480	 27.5662	  27.566	 164.895
 3300	  0.2484	 27.5912	  27.591	 165.045
 3303	  0.2480	 27.6162	  27.616	 165.195
 3306	  0.2472	 27.6412	  27.641	 165.345
 3309	  0.2480	 27.6650	  27.665	 165.495
 3312	  0.2480	 27.6900	  27.690	 165.645
 3315	  0.2480	 27.7150	  27.715	 165.795
 3318	  0.2484	 27.7400	  27.740	 165.945
 3321	  0.2476	 27.7650	  27.765	 166.095
 3324	  0.2476	 27.7900	  27.790	 166.245
 3327	  0.2480	 27.8150	  27.815	 166.395
 3330	  0.2484	 27.8412	  27.841	 166.545
 3333	  0.2492	 27.8662	  27.866	 166.695
 3336	  0.2488	 27.8912	  27.891	 166.845
 3339	  0.2496	 27.9163	  27.916	 166.995
 3342	  0.2480	 27.9412	  27.941	 167.145
 3345	  0.2488	 27.9662	  27.966	 167.295
 3348	  0.2492	 27.9912	  27.991	 167.445
 3351	  0.2496	 28.0162	  28.016	 167.595
 3354	  0.2496	 28.0413	  28.041	 167.745
 3357	  0.2496	 28.0662	  28.066	 167.895
 3360	  0.2500	 28.0912	  28.091	 168.045
 3363	  0.2500	 28.1162	  28.116	 168.195
 3366	  0.2496	 28.1412	  28.141	 168.345
 3369	  0.2500	 28.1663	  28.166	 168.495
 3372	  0.2496	 28.1912	  28.191	 168.645
 3375	  0.2496	 28.2162	  28.216	 168.795
 3378	  0.2496	 28.2412	  28.241	 168.945
 3381	  0.2500	 28.2662	  28.266	 169.095
 3384	  0.2496	 28.2913	  28.291	 169.245
 3387	  0.2500	 28.3162	  28.316	 169.395
 3390	  0.2500	 28.3412	  28.341	 169.545
 3393	  0.2500	 28.3662	  28.366	 169.695
 3396	  0.2500	 28.3912	  28.391	 169.845
 3399	  0.2496	 28.4163	  28.416	 169.995
 3402	  0.2492	 28.4412	  28.441	 170.145
 3405	  0.2492	 28.4662	  28.466	 170.295
 3408	  0.2500	 28.4912	  28.491	 170.445
 3411	  0.2496	 28.5162	  28.516	 170.595
 3414	  0.2496	 28.5413	  28.541	 170.745
 3417	  0.2492	 28.5662	  28.566	 170.895
 3420	  0.2500	 28.5912	  28.591	 171.045
 3423	  0.2500	 28.6162	  28.616	 171.195
 3426	  0.2492	 28.6412	  28.641	 171.345
 3429	  0.2496	 28.6663	  28.666	 171.495
 3432	  0.2496	 28.6912	  28.691	 171.645
 3435	  0.2488	 28.7162	  28.716	 171.795
 3438	  0.2488	 28.7412	  28.741	 171.945
 3441	  0.2496	 28.7662	  28.766	 172.095
 3444	  0.2488	 28.7913	  28.791	 172.245
 3447	  0.2496	 28.8162	  28.816	 172.395
 3450	  0.2496	 28.8412	  28.841	 172.545
 3453	  0.2492	 28.8662	  28.866	 172.695
 3456	  0.2500	 28.8912	  28.891	 172.845
 3459	  0.2500	 28.9163	  28.916	 172.995
 3462	  0.2508	 28.9412	  28.941	 173.145
 3465	  0.2508	 28.9662	  28.966	 173.295
 3468	  0.2496	 28.9912	  28.991	 173.445
 3471	  0.2492	 29.0150	  29.015	 173.595
 3474	  0.2488	 29.0400	  29.040	 173.745
 3477	  0.2492	 29.0650	  29.065	 173.895
 3480	  0.2492	 29.0912	  29.091	 174.045
 3483	  0.2492	 29.1162	  29.116	 174.195
 3486	  0.2476	 29.1412	  29.141	 174.345
 3489	  0.0012	 29.1650	  29.165	 174.495
 3492	  0.0012	 29.1912	  29.191	 174.645
 3495	  0.0016	 29.2150	  29.215	 174.795
 3498	  0.0016	 29.2387	  29.239	 174.945
 3501	  0.0012	 29.2638	  29.264	 175.095
 3504	  0.0016	 29.2887	  29.289	 175.245
 3507	  0.0020	 29.3137	  29.314	 175.395
 3510	  0.0024	 29.3387	  29.339	 175.545
 3513	  0.0016	 29.3637	  29.364	 175.695
 3516	  0.0024	 29.3888	  29.389	 175.845
 3519	  0.0012	 29.4137	  29.414	 175.995
 3522	  0.0020	 29.4387	  29.439	 176.145
 3525	  0.0024	 29.4625	  29.462	 176.295
 3528	  0.0016	 29.4875	  29.487	 176.445
ControlMode:	0
Rate:	 10.0000
(null)
4
step	1
0
5.000000
0.000000
1
1
0.500000
2
step	2
1
5.000000
0.000000
1
1
2.000000
3
step	3
5
2.000000
0.000000
1
0
30
4
step	4
8
0.000000
0.000000
0
0
0.000000
0
2