File: Dados - Tração/P2-lacre pratic 02.txt
0
Diameter:	   5.00
   1.00
Area:	  19.6350
GaugeLength:	  50.00
2009-1-1
A3
001
DataNumber:	3009
index	Load(kN)	Defor(mm)	Stroke(mm)	Time(s)
    0	  0.0100	  0.0088	   0.009	   0.045
    3	  0.0088	  0.0337	   0.034	   0.195
    6	  0.0088	  0.0587	   0.059	   0.345
    9	  0.0092	  0.0837	   0.084	   0.495
   12	  0.0096	  0.1088	   0.109	   0.645
   15	  0.0100	  0.1337	   0.134	   0.795
   18	  0.0104	  0.1587	   0.159	   0.945
   21	  0.0100	  0.1850	   0.185	   1.095
   24	  0.0100	  0.2100	   0.210	   1.245
   27	  0.0104	  0.2350	   0.235	   1.395
   30	  0.0100	  0.2600	   0.260	   1.545
   33	  0.0108	  0.2850	   0.285	   1.695
   36	  0.0104	  0.3100	   0.310	   1.845
   39	  0.0108	  0.3350	   0.335	   1.995
   42	  0.0112	  0.3600	   0.360	   2.145
   45	  0.0112	  0.3850	   0.385	   2.295
   48	  0.0120	  0.4100	   0.410	   2.445
   51	  0.0112	  0.4350	   0.435	   2.595
   54	  0.0120	  0.4600	   0.460	   2.745
   57	  0.0116	  0.4850	   0.485	   2.895
   60	  0.0120	  0.5100	   0.510	   3.045
   63	  0.0124	  0.5350	   0.535	   3.195
   66	  0.0124	  0.5600	   0.560	   3.345
   69	  0.0120	  0.5850	   0.585	   3.495
   72	  0.0128	  0.6100	   0.610	   3.645
   75	  0.0120	  0.6350	   0.635	   3.795
   78	  0.0132	  0.6600	   0.660	   3.945
   81	  0.0132	  0.6850	   0.685	   4.095
   84	  0.0124	  0.7100	   0.710	   4.245
   87	  0.0136	  0.7350	   0.735	   4.395
   90	  0.0140	  0.7600	   0.760	   4.545
   93	  0.0132	  0.7850	   0.785	   4.695
   96	  0.0140	  0.8100	   0.810	   4.845
   99	  0.0140	  0.8350	   0.835	   4.995
  102	  0.0144	  0.8600	   0.860	   5.145
  105	  0.0152	  0.8850	   0.885	   5.295
  108	  0.0156	  0.9100	   0.910	   5.445
  111	  0.0152	  0.9350	   0.935	   5.595
  114	  0.0148	  0.9600	   0.960	   5.745
  117	  0.0160	  0.9850	   0.985	   5.895
  120	  0.0148	  1.0100	   1.010	   6.045
  123	  0.0152	  1.0350	   1.035	   6.195
  126	  0.0156	  1.0600	   1.060	   6.345
  129	  0.0156	  1.0850	   1.085	   6.495
  132	  0.0156	  1.1100	   1.110	   6.645
  135	  0.0168	  1.1363	   1.136	   6.795
  138	  0.0172	  1.1612	   1.161	   6.945
  141	  0.0164	  1.1850	   1.185	   7.095
  144	  0.0168	  1.2100	   1.210	   7.245
  147	  0.0180	  1.2350	   1.235	   7.395
  150	  0.0176	  1.2613	   1.261	   7.545
  153	  0.0176	  1.2862	   1.286	   7.695
  156	  0.0184	  1.3112	   1.311	   7.845
  159	  0.0184	  1.3362	   1.336	   7.995
  162	  0.0184	  1.3612	   1.361	   8.145
  165	  0.0188	  1.3863	   1.386	   8.295
  168	  0.0192	  1.4112	   1.411	   8.445
  171	  0.0196	  1.4362	   1.436	   8.595
  174	  0.0188	  1.4612	   1.461	   8.745
  177	  0.0192	  1.4862	   1.486	   8.895
  180	  0.0196	  1.5113	   1.511	   9.045
  183	  0.0196	  1.5362	   1.536	   9.195
  186	  0.0208	  1.5612	   1.561	   9.345
  189	  0.0204	  1.5862	   1.586	   9.495
  192	  0.0200	  1.6112	   1.611	   9.645
  195	  0.0208	  1.6363	   1.636	   9.795
  198	  0.0204	  1.6612	   1.661	   9.945
  201	  0.0216	  1.6862	   1.686	  10.095
  204	  0.0212	  1.7112	   1.711	  10.245
  207	  0.0216	  1.7350	   1.735	  10.395
  210	  0.0224	  1.7600	   1.760	  10.545
  213	  0.0220	  1.7850	   1.785	  10.695
  216	  0.0224	  1.8100	   1.810	  10.845
  219	  0.0228	  1.8362	   1.836	  10.995
  222	  0.0228	  1.8612	   1.861	  11.145
  225	  0.0236	  1.8862	   1.886	  11.295
  228	  0.0236	  1.9100	   1.910	  11.445
  231	  0.0248	  1.9362	   1.936	  11.595
  234	  0.0248	  1.9612	   1.961	  11.745
  237	  0.0248	  1.9862	   1.986	  11.895
  240	  0.0256	  2.0113	   2.011	  12.045
  243	  0.0264	  2.0362	   2.036	  12.195
  246	  0.0268	  2.0612	   2.061	  12.345
  249	  0.0264	  2.0863	   2.086	  12.495
  252	  0.0272	  2.1112	   2.111	  12.645
  255	  0.0272	  2.1363	   2.136	  12.795
  258	  0.0272	  2.1612	   2.161	  12.945
  261	  0.0272	  2.1862	   2.186	  13.095
  264	  0.0276	  2.2113	   2.211	  13.245
  267	  0.0284	  2.2362	   2.236	  13.395
  270	  0.0288	  2.2613	   2.261	  13.545
  273	  0.0292	  2.2862	   2.286	  13.695
  276	  0.0292	  2.3112	   2.311	  13.845
  279	  0.0300	  2.3363	   2.336	  13.995
  282	  0.0296	  2.3612	   2.361	  14.145
  285	  0.0304	  2.3875	   2.388	  14.295
  288	  0.0312	  2.4125	   2.412	  14.445
  291	  0.0320	  2.4375	   2.438	  14.595
  294	  0.0320	  2.4625	   2.462	  14.745
  297	  0.0316	  2.4875	   2.487	  14.895
  300	  0.0328	  2.5125	   2.513	  15.045
  303	  0.0328	  2.5375	   2.537	  15.195
  306	  0.0332	  2.5625	   2.562	  15.345
  309	  0.0340	  2.5875	   2.587	  15.495
  312	  0.0344	  2.6125	   2.612	  15.645
  315	  0.0348	  2.6375	   2.638	  15.795
  318	  0.0360	  2.6625	   2.662	  15.945
  321	  0.0364	  2.6875	   2.688	  16.095
  324	  0.0364	  2.7125	   2.712	  16.245
  327	  0.0364	  2.7375	   2.737	  16.395
  330	  0.0372	  2.7625	   2.763	  16.545
  333	  0.0376	  2.7875	   2.787	  16.695
  336	  0.0376	  2.8125	   2.812	  16.845
  339	  0.0388	  2.8375	   2.837	  16.995
  342	  0.0384	  2.8625	   2.862	  17.145
  345	  0.0388	  2.8875	   2.888	  17.295
  348	  0.0384	  2.9125	   2.912	  17.445
  351	  0.0388	  2.9388	   2.939	  17.595
  354	  0.0392	  2.9637	   2.964	  17.745
  357	  0.0408	  2.9887	   2.989	  17.895
  360	  0.0412	  3.0137	   3.014	  18.045
  363	  0.0416	  3.0375	   3.037	  18.195
  366	  0.0420	  3.0625	   3.062	  18.345
  369	  0.0424	  3.0875	   3.087	  18.495
  372	  0.0428	  3.1125	   3.112	  18.645
  375	  0.0428	  3.1375	   3.138	  18.795
  378	  0.0436	  3.1625	   3.162	  18.945
  381	  0.0436	  3.1875	   3.188	  19.095
  384	  0.0440	  3.2137	   3.214	  19.245
  387	  0.0444	  3.2387	   3.239	  19.395
  390	  0.0452	  3.2637	   3.264	  19.545
  393	  0.0460	  3.2887	   3.289	  19.695
  396	  0.0464	  3.3138	   3.314	  19.845
  399	  0.0468	  3.3400	   3.340	  19.995
  402	  0.0472	  3.3650	   3.365	  20.145
  405	  0.0476	  3.3900	   3.390	  20.295
  408	  0.0480	  3.4150	   3.415	  20.445
  411	  0.0492	  3.4400	   3.440	  20.595
  414	  0.0496	  3.4662	   3.466	  20.745
  417	  0.0500	  3.4913	   3.491	  20.895
  420	  0.0512	  3.5162	   3.516	  21.045
  423	  0.0512	  3.5412	   3.541	  21.195
  426	  0.0516	  3.5662	   3.566	  21.345
  429	  0.0524	  3.5912	   3.591	  21.495
  432	  0.0524	  3.6175	   3.617	  21.645
  435	  0.0520	  3.6425	   3.642	  21.795
  438	  0.0520	  3.6675	   3.668	  21.945
  441	  0.0528	  3.6925	   3.692	  22.095
  444	  0.0540	  3.7175	   3.717	  22.245
  447	  0.0548	  3.7425	   3.742	  22.395
  450	  0.0548	  3.7687	   3.769	  22.545
  453	  0.0556	  3.7937	   3.794	  22.695
  456	  0.0556	  3.8187	   3.819	  22.845
  459	  0.0568	  3.8438	   3.844	  22.995
  462	  0.0568	  3.8687	   3.869	  23.145
  465	  0.0576	  3.8937	   3.894	  23.295
  468	  0.0580	  3.9187	   3.919	  23.445
  471	  0.0584	  3.9437	   3.944	  23.595
  474	  0.0584	  3.9688	   3.969	  23.745
  477	  0.0596	  3.9937	   3.994	  23.895
  480	  0.0600	  4.0200	   4.020	  24.045
  483	  0.0600	  4.0450	   4.045	  24.195
  486	  0.0604	  4.0700	   4.070	  24.345
  489	  0.0612	  4.0950	   4.095	  24.495
  492	  0.0620	  4.1200	   4.120	  24.645
  495	  0.0624	  4.1450	   4.145	  24.795
  498	  0.0624	  4.1700	   4.170	  24.945
  501	  0.0628	  4.1950	   4.195	  25.095
  504	  0.0636	  4.2200	   4.220	  25.245
  507	  0.0644	  4.2450	   4.245	  25.395
  510	  0.0652	  4.2700	   4.270	  25.545
  513	  0.0656	  4.2950	   4.295	  25.695
  516	  0.0660	  4.3200	   4.320	  25.845
  519	  0.0668	  4.3450	   4.345	  25.995
  522	  0.0672	  4.3700	   4.370	  26.145
  525	  0.0676	  4.3950	   4.395	  26.295
  528	  0.0676	  4.4200	   4.420	  26.445
  531	  0.0684	  4.4450	   4.445	  26.595
  534	  0.0688	  4.4713	   4.471	  26.745
  537	  0.0692	  4.4962	   4.496	  26.895
  540	  0.0688	  4.5212	   4.521	  27.045
  543	  0.0704	  4.5450	   4.545	  27.195
  546	  0.0708	  4.5700	   4.570	  27.345
  549	  0.0716	  4.5950	   4.595	  27.495
  552	  0.0712	  4.6200	   4.620	  27.645
  555	  0.0724	  4.6450	   4.645	  27.795
  558	  0.0728	  4.6700	   4.670	  27.945
  561	  0.0736	  4.6950	   4.695	  28.095
  564	  0.0744	  4.7200	   4.720	  28.245
  567	  0.0744	  4.7462	   4.746	  28.395
  570	  0.0748	  4.7712	   4.771	  28.545
  573	  0.0760	  4.7950	   4.795	  28.695
  576	  0.0764	  4.8200	   4.820	  28.845
  579	  0.0772	  4.8450	   4.845	  28.995
  582	  0.0780	  4.8700	   4.870	  29.145
  585	  0.0772	  4.8950	   4.895	  29.295
  588	  0.0776	  4.9200	   4.920	  29.445
  591	  0.0784	  4.9450	   4.945	  29.595
  594	  0.0796	  4.9700	   4.970	  29.745
  597	  0.0792	  4.9950	   4.995	  29.895
  600	  0.0800	  5.0200	   5.020	  30.045
  603	  0.0804	  5.0450	   5.045	  30.195
  606	  0.0812	  5.0700	   5.070	  30.345
  609	  0.0808	  5.0950	   5.095	  30.495
  612	  0.0808	  5.1200	   5.120	  30.645
  615	  0.0812	  5.1450	   5.145	  30.795
  618	  0.0820	  5.1700	   5.170	  30.945
  621	  0.0820	  5.1950	   5.195	  31.095
  624	  0.0828	  5.2200	   5.220	  31.245
  627	  0.0836	  5.2450	   5.245	  31.395
  630	  0.0844	  5.2700	   5.270	  31.545
  633	  0.0844	  5.2950	   5.295	  31.695
  636	  0.0848	  5.3200	   5.320	  31.845
  639	  0.0856	  5.3450	   5.345	  31.995
  642	  0.0864	  5.3700	   5.370	  32.145
  645	  0.0864	  5.3950	   5.395	  32.295
  648	  0.0872	  5.4200	   5.420	  32.445
  651	  0.0880	  5.4450	   5.445	  32.595
  654	  0.0880	  5.4700	   5.470	  32.745
  657	  0.0888	  5.4950	   5.495	  32.895
  660	  0.0892	  5.5200	   5.520	  33.045
  663	  0.0892	  5.5450	   5.545	  33.195
  666	  0.0896	  5.5700	   5.570	  33.345
  669	  0.0904	  5.5963	   5.596	  33.495
  672	  0.0912	  5.6200	   5.620	  33.645
  675	  0.0916	  5.6450	   5.645	  33.795
  678	  0.0916	  5.6700	   5.670	  33.945
  681	  0.0920	  5.6950	   5.695	  34.095
  684	  0.0924	  5.7200	   5.720	  34.245
  687	  0.0932	  5.7450	   5.745	  34.395
  690	  0.0936	  5.7700	   5.770	  34.545
  693	  0.0944	  5.7950	   5.795	  34.695
  696	  0.0944	  5.8200	   5.820	  34.845
  699	  0.0940	  5.8450	   5.845	  34.995
  702	  0.0952	  5.8700	   5.870	  35.145
  705	  0.0968	  5.8950	   5.895	  35.295
  708	  0.0956	  5.9200	   5.920	  35.445
  711	  0.0968	  5.9450	   5.945	  35.595
  714	  0.0976	  5.9700	   5.970	  35.745
  717	  0.0976	  5.9950	   5.995	  35.895
  720	  0.0980	  6.0200	   6.020	  36.045
  723	  0.0992	  6.0450	   6.045	  36.195
  726	  0.0996	  6.0700	   6.070	  36.345
  729	  0.0992	  6.0963	   6.096	  36.495
  732	  0.0992	  6.1212	   6.121	  36.645
  735	  0.1004	  6.1462	   6.146	  36.795
  738	  0.1008	  6.1712	   6.171	  36.945
  741	  0.1012	  6.1962	   6.196	  37.095
  744	  0.1012	  6.2213	   6.221	  37.245
  747	  0.1016	  6.2462	   6.246	  37.395
  750	  0.1032	  6.2712	   6.271	  37.545
  753	  0.1032	  6.2962	   6.296	  37.695
  756	  0.1024	  6.3212	   6.321	  37.845
  759	  0.1036	  6.3463	   6.346	  37.995
  762	  0.1044	  6.3712	   6.371	  38.145
  765	  0.1052	  6.3962	   6.396	  38.295
  768	  0.1048	  6.4212	   6.421	  38.445
  771	  0.1056	  6.4462	   6.446	  38.595
  774	  0.1060	  6.4713	   6.471	  38.745
  777	  0.1068	  6.4962	   6.496	  38.895
  780	  0.1068	  6.5225	   6.523	  39.045
  783	  0.1072	  6.5475	   6.547	  39.195
  786	  0.1076	  6.5725	   6.572	  39.345
  789	  0.1088	  6.5975	   6.597	  39.495
  792	  0.1084	  6.6225	   6.622	  39.645
  795	  0.1092	  6.6475	   6.648	  39.795
  798	  0.1088	  6.6725	   6.672	  39.945
  801	  0.1096	  6.6975	   6.697	  40.095
  804	  0.1104	  6.7225	   6.722	  40.245
  807	  0.1108	  6.7475	   6.747	  40.395
  810	  0.1104	  6.7725	   6.773	  40.545
  813	  0.1116	  6.7975	   6.797	  40.695
  816	  0.1116	  6.8238	   6.824	  40.845
  819	  0.1120	  6.8487	   6.849	  40.995
  822	  0.1128	  6.8737	   6.874	  41.145
  825	  0.1136	  6.8987	   6.899	  41.295
  828	  0.1136	  6.9237	   6.924	  41.445
  831	  0.1140	  6.9488	   6.949	  41.595
  834	  0.1144	  6.9737	   6.974	  41.745
  837	  0.1152	  6.9987	   6.999	  41.895
  840	  0.1148	  7.0237	   7.024	  42.045
  843	  0.1156	  7.0487	   7.049	  42.195
  846	  0.1160	  7.0738	   7.074	  42.345
  849	  0.1160	  7.1000	   7.100	  42.495
  852	  0.1168	  7.1250	   7.125	  42.645
  855	  0.1168	  7.1500	   7.150	  42.795
  858	  0.1172	  7.1737	   7.174	  42.945
  861	  0.1180	  7.2000	   7.200	  43.095
  864	  0.1180	  7.2250	   7.225	  43.245
  867	  0.1184	  7.2500	   7.250	  43.395
  870	  0.1188	  7.2750	   7.275	  43.545
  873	  0.1188	  7.3000	   7.300	  43.695
  876	  0.1192	  7.3250	   7.325	  43.845
  879	  0.1188	  7.3512	   7.351	  43.995
  882	  0.1200	  7.3762	   7.376	  44.145
  885	  0.1200	  7.4012	   7.401	  44.295
  888	  0.1208	  7.4262	   7.426	  44.445
  891	  0.1212	  7.4512	   7.451	  44.595
  894	  0.1220	  7.4762	   7.476	  44.745
  897	  0.1220	  7.5012	   7.501	  44.895
  900	  0.1228	  7.5275	   7.527	  45.045
  903	  0.1228	  7.5525	   7.552	  45.195
  906	  0.1228	  7.5775	   7.577	  45.345
  909	  0.1232	  7.6025	   7.602	  45.495
  912	  0.1240	  7.6275	   7.628	  45.645
  915	  0.1232	  7.6525	   7.652	  45.795
  918	  0.1236	  7.6775	   7.677	  45.945
  921	  0.1240	  7.7025	   7.702	  46.095
  924	  0.1252	  7.7275	   7.727	  46.245
  927	  0.1252	  7.7537	   7.754	  46.395
  930	  0.1256	  7.7787	   7.779	  46.545
  933	  0.1260	  7.8038	   7.804	  46.695
  936	  0.1260	  7.8287	   7.829	  46.845
  939	  0.1260	  7.8537	   7.854	  46.995
  942	  0.1272	  7.8787	   7.879	  47.145
  945	  0.1272	  7.9037	   7.904	  47.295
  948	  0.1268	  7.9288	   7.929	  47.445
  951	  0.1280	  7.9537	   7.954	  47.595
  954	  0.1284	  7.9787	   7.979	  47.745
  957	  0.1288	  8.0037	   8.004	  47.895
  960	  0.1292	  8.0287	   8.029	  48.045
  963	  0.1296	  8.0538	   8.054	  48.195
  966	  0.1292	  8.0787	   8.079	  48.345
  969	  0.1300	  8.1050	   8.105	  48.495
  972	  0.1292	  8.1300	   8.130	  48.645
  975	  0.1296	  8.1550	   8.155	  48.795
  978	  0.1300	  8.1800	   8.180	  48.945
  981	  0.1308	  8.2050	   8.205	  49.095
  984	  0.1312	  8.2300	   8.230	  49.245
  987	  0.1324	  8.2550	   8.255	  49.395
  990	  0.1320	  8.2800	   8.280	  49.545
  993	  0.1324	  8.3050	   8.305	  49.695
  996	  0.1328	  8.3300	   8.330	  49.845
  999	  0.1332	  8.3550	   8.355	  49.995
 1002	  0.1332	  8.3800	   8.380	  50.145
 1005	  0.1340	  8.4050	   8.405	  50.295
 1008	  0.1344	  8.4300	   8.430	  50.445
 1011	  0.1348	  8.4550	   8.455	  50.595
 1014	  0.1352	  8.4812	   8.481	  50.745
 1017	  0.1352	  8.5050	   8.505	  50.895
 1020	  0.1352	  8.5312	   8.531	  51.045
 1023	  0.1352	  8.5562	   8.556	  51.195
 1026	  0.1360	  8.5813	   8.581	  51.345
 1029	  0.1364	  8.6062	   8.606	  51.495
 1032	  0.1364	  8.6312	   8.631	  51.645
 1035	  0.1372	  8.6562	   8.656	  51.795
 1038	  0.1364	  8.6812	   8.681	  51.945
 1041	  0.1376	  8.7063	   8.706	  52.095
 1044	  0.1372	  8.7312	   8.731	  52.245
 1047	  0.1380	  8.7562	   8.756	  52.395
 1050	  0.1376	  8.7812	   8.781	  52.545
 1053	  0.1384	  8.8062	   8.806	  52.695
 1056	  0.1384	  8.8313	   8.831	  52.845
 1059	  0.1392	  8.8562	   8.856	  52.995
 1062	  0.1392	  8.8825	   8.882	  53.145
 1065	  0.1400	  8.9075	   8.908	  53.295
 1068	  0.1400	  8.9325	   8.932	  53.445
 1071	  0.1400	  8.9575	   8.957	  53.595
 1074	  0.1408	  8.9825	   8.983	  53.745
 1077	  0.1404	  9.0075	   9.007	  53.895
 1080	  0.1408	  9.0325	   9.033	  54.045
 1083	  0.1408	  9.0575	   9.057	  54.195
 1086	  0.1408	  9.0825	   9.082	  54.345
 1089	  0.1412	  9.1075	   9.108	  54.495
 1092	  0.1416	  9.1325	   9.132	  54.645
 1095	  0.1412	  9.1575	   9.158	  54.795
 1098	  0.1420	  9.1825	   9.182	  54.945
 1101	  0.1420	  9.2075	   9.207	  55.095
 1104	  0.1424	  9.2325	   9.233	  55.245
 1107	  0.1424	  9.2575	   9.257	  55.395
 1110	  0.1424	  9.2825	   9.283	  55.545
 1113	  0.1432	  9.3075	   9.307	  55.695
 1116	  0.1428	  9.3325	   9.332	  55.845
 1119	  0.1436	  9.3575	   9.358	  55.995
 1122	  0.1444	  9.3825	   9.382	  56.145
 1125	  0.1440	  9.4075	   9.407	  56.295
 1128	  0.1444	  9.4325	   9.432	  56.445
 1131	  0.1444	  9.4587	   9.459	  56.595
 1134	  0.1448	  9.4837	   9.484	  56.745
 1137	  0.1456	  9.5087	   9.509	  56.895
 1140	  0.1456	  9.5337	   9.534	  57.045
 1143	  0.1448	  9.5575	   9.557	  57.195
 1146	  0.1460	  9.5837	   9.584	  57.345
 1149	  0.1464	  9.6087	   9.609	  57.495
 1152	  0.1468	  9.6337	   9.634	  57.645
 1155	  0.1468	  9.6587	   9.659	  57.795
 1158	  0.1468	  9.6838	   9.684	  57.945
 1161	  0.1476	  9.7087	   9.709	  58.095
 1164	  0.1488	  9.7337	   9.734	  58.245
 1167	  0.1480	  9.7587	   9.759	  58.395
 1170	  0.1488	  9.7837	   9.784	  58.545
 1173	  0.1488	  9.8088	   9.809	  58.695
 1176	  0.1492	  9.8337	   9.834	  58.845
 1179	  0.1496	  9.8587	   9.859	  58.995
 1182	  0.1496	  9.8837	   9.884	  59.145
 1185	  0.1496	  9.9087	   9.909	  59.295
 1188	  0.1492	  9.9338	   9.934	  59.445
 1191	  0.1492	  9.9587	   9.959	  59.595
 1194	  0.1500	  9.9850	   9.985	  59.745
 1197	  0.1508	 10.0100	  10.010	  59.895
 1200	  0.1508	 10.0350	  10.035	  60.045
 1203	  0.1504	 10.0600	  10.060	  60.195
 1206	  0.1512	 10.0850	  10.085	  60.345
 1209	  0.1504	 10.1100	  10.110	  60.495
 1212	  0.1520	 10.1350	  10.135	  60.645
 1215	  0.1512	 10.1600	  10.160	  60.795
 1218	  0.1516	 10.1850	  10.185	  60.945
 1221	  0.1520	 10.2100	  10.210	  61.095
 1224	  0.1516	 10.2350	  10.235	  61.245
 1227	  0.1528	 10.2600	  10.260	  61.395
 1230	  0.1520	 10.2850	  10.285	  61.545
 1233	  0.1528	 10.3100	  10.310	  61.695
 1236	  0.1532	 10.3350	  10.335	  61.845
 1239	  0.1540	 10.3600	  10.360	  61.995
 1242	  0.1540	 10.3850	  10.385	  62.145
 1245	  0.1540	 10.4100	  10.410	  62.295
 1248	  0.1536	 10.4350	  10.435	  62.445
 1251	  0.1544	 10.4612	  10.461	  62.595
 1254	  0.1552	 10.4862	  10.486	  62.745
 1257	  0.1552	 10.5112	  10.511	  62.895
 1260	  0.1548	 10.5363	  10.536	  63.045
 1263	  0.1552	 10.5612	  10.561	  63.195
 1266	  0.1556	 10.5862	  10.586	  63.345
 1269	  0.1556	 10.6112	  10.611	  63.495
 1272	  0.1564	 10.6362	  10.636	  63.645
 1275	  0.1564	 10.6613	  10.661	  63.795
 1278	  0.1556	 10.6862	  10.686	  63.945
 1281	  0.1564	 10.7112	  10.711	  64.095
 1284	  0.1568	 10.7362	  10.736	  64.245
 1287	  0.1576	 10.7612	  10.761	  64.395
 1290	  0.1568	 10.7863	  10.786	  64.545
 1293	  0.1572	 10.8112	  10.811	  64.695
 1296	  0.1580	 10.8375	  10.837	  64.845
 1299	  0.1572	 10.8625	  10.863	  64.995
 1302	  0.1584	 10.8875	  10.887	  65.145
 1305	  0.1588	 10.9125	  10.912	  65.295
 1308	  0.1592	 10.9375	  10.938	  65.445
 1311	  0.1596	 10.9625	  10.962	  65.595
 1314	  0.1596	 10.9875	  10.988	  65.745
 1317	  0.1600	 11.0125	  11.012	  65.895
 1320	  0.1596	 11.0375	  11.037	  66.045
 1323	  0.1592	 11.0625	  11.062	  66.195
 1326	  0.1604	 11.0875	  11.087	  66.345
 1329	  0.1608	 11.1125	  11.113	  66.495
 1332	  0.1612	 11.1375	  11.137	  66.645
 1335	  0.1612	 11.1637	  11.164	  66.795
 1338	  0.1616	 11.1887	  11.189	  66.945
 1341	  0.1620	 11.2137	  11.214	  67.095
 1344	  0.1620	 11.2387	  11.239	  67.245
 1347	  0.1620	 11.2638	  11.264	  67.395
 1350	  0.1624	 11.2887	  11.289	  67.545
 1353	  0.1616	 11.3137	  11.314	  67.695
 1356	  0.1628	 11.3387	  11.339	  67.845
 1359	  0.1620	 11.3637	  11.364	  67.995
 1362	  0.1624	 11.3888	  11.389	  68.145
 1365	  0.1620	 11.4137	  11.414	  68.295
 1368	  0.1616	 11.4400	  11.440	  68.445
 1371	  0.1624	 11.4650	  11.465	  68.595
 1374	  0.1624	 11.4900	  11.490	  68.745
 1377	  0.1620	 11.5150	  11.515	  68.895
 1380	  0.1632	 11.5400	  11.540	  69.045
 1383	  0.1636	 11.5650	  11.565	  69.195
 1386	  0.1628	 11.5900	  11.590	  69.345
 1389	  0.1628	 11.6163	  11.616	  69.495
 1392	  0.1636	 11.6412	  11.641	  69.645
 1395	  0.1632	 11.6662	  11.666	  69.795
 1398	  0.1636	 11.6912	  11.691	  69.945
 1401	  0.1644	 11.7162	  11.716	  70.095
 1404	  0.1644	 11.7413	  11.741	  70.245
 1407	  0.1640	 11.7662	  11.766	  70.395
 1410	  0.1652	 11.7912	  11.791	  70.545
 1413	  0.1652	 11.8162	  11.816	  70.695
 1416	  0.1656	 11.8412	  11.841	  70.845
 1419	  0.1660	 11.8675	  11.867	  70.995
 1422	  0.1656	 11.8925	  11.892	  71.145
 1425	  0.1660	 11.9175	  11.917	  71.295
 1428	  0.1664	 11.9425	  11.943	  71.445
 1431	  0.1672	 11.9675	  11.967	  71.595
 1434	  0.1668	 11.9925	  11.992	  71.745
 1437	  0.1672	 12.0175	  12.017	  71.895
 1440	  0.1672	 12.0425	  12.042	  72.045
 1443	  0.1680	 12.0675	  12.068	  72.195
 1446	  0.1684	 12.0938	  12.094	  72.345
 1449	  0.1680	 12.1187	  12.119	  72.495
 1452	  0.1684	 12.1438	  12.144	  72.645
 1455	  0.1688	 12.1687	  12.169	  72.795
 1458	  0.1688	 12.1937	  12.194	  72.945
 1461	  0.1692	 12.2188	  12.219	  73.095
 1464	  0.1696	 12.2437	  12.244	  73.245
 1467	  0.1692	 12.2688	  12.269	  73.395
 1470	  0.1692	 12.2937	  12.294	  73.545
 1473	  0.1692	 12.3187	  12.319	  73.695
 1476	  0.1696	 12.3438	  12.344	  73.845
 1479	  0.1704	 12.3687	  12.369	  73.995
 1482	  0.1696	 12.3938	  12.394	  74.145
 1485	  0.1700	 12.4187	  12.419	  74.295
 1488	  0.1700	 12.4437	  12.444	  74.445
 1491	  0.1700	 12.4688	  12.469	  74.595
 1494	  0.1704	 12.4950	  12.495	  74.745
 1497	  0.1708	 12.5200	  12.520	  74.895
 1500	  0.1704	 12.5450	  12.545	  75.045
 1503	  0.1704	 12.5700	  12.570	  75.195
 1506	  0.1712	 12.5950	  12.595	  75.345
 1509	  0.1716	 12.6200	  12.620	  75.495
 1512	  0.1716	 12.6450	  12.645	  75.645
 1515	  0.1712	 12.6700	  12.670	  75.795
 1518	  0.1720	 12.6950	  12.695	  75.945
 1521	  0.1724	 12.7200	  12.720	  76.095
 1524	  0.1724	 12.7450	  12.745	  76.245
 1527	  0.1728	 12.7700	  12.770	  76.395
 1530	  0.1728	 12.7950	  12.795	  76.545
 1533	  0.1728	 12.8200	  12.820	  76.695
 1536	  0.1732	 12.8450	  12.845	  76.845
 1539	  0.1724	 12.8700	  12.870	  76.995
 1542	  0.1728	 12.8950	  12.895	  77.145
 1545	  0.1724	 12.9200	  12.920	  77.295
 1548	  0.1732	 12.9450	  12.945	  77.445
 1551	  0.1740	 12.9700	  12.970	  77.595
 1554	  0.1740	 12.9950	  12.995	  77.745
 1557	  0.1740	 13.0200	  13.020	  77.895
 1560	  0.1744	 13.0450	  13.045	  78.045
 1563	  0.1740	 13.0700	  13.070	  78.195
 1566	  0.1736	 13.0950	  13.095	  78.345
 1569	  0.1740	 13.1200	  13.120	  78.495
 1572	  0.1748	 13.1450	  13.145	  78.645
 1575	  0.1748	 13.1700	  13.170	  78.795
 1578	  0.1752	 13.1950	  13.195	  78.945
 1581	  0.1756	 13.2200	  13.220	  79.095
 1584	  0.1752	 13.2450	  13.245	  79.245
 1587	  0.1752	 13.2700	  13.270	  79.395
 1590	  0.1760	 13.2950	  13.295	  79.545
 1593	  0.1752	 13.3200	  13.320	  79.695
 1596	  0.1756	 13.3462	  13.346	  79.845
 1599	  0.1756	 13.3713	  13.371	  79.995
 1602	  0.1752	 13.3962	  13.396	  80.145
 1605	  0.1764	 13.4212	  13.421	  80.295
 1608	  0.1768	 13.4462	  13.446	  80.445
 1611	  0.1764	 13.4712	  13.471	  80.595
 1614	  0.1768	 13.4963	  13.496	  80.745
 1617	  0.1772	 13.5212	  13.521	  80.895
 1620	  0.1772	 13.5462	  13.546	  81.045
 1623	  0.1772	 13.5712	  13.571	  81.195
 1626	  0.1776	 13.5962	  13.596	  81.345
 1629	  0.1780	 13.6213	  13.621	  81.495
 1632	  0.1788	 13.6462	  13.646	  81.645
 1635	  0.1784	 13.6725	  13.672	  81.795
 1638	  0.1772	 13.6975	  13.697	  81.945
 1641	  0.1772	 13.7225	  13.722	  82.095
 1644	  0.1780	 13.7475	  13.747	  82.245
 1647	  0.1780	 13.7725	  13.773	  82.395
 1650	  0.1784	 13.7975	  13.797	  82.545
 1653	  0.1784	 13.8225	  13.822	  82.695
 1656	  0.1792	 13.8475	  13.847	  82.845
 1659	  0.1788	 13.8725	  13.872	  82.995
 1662	  0.1796	 13.8975	  13.898	  83.145
 1665	  0.1800	 13.9212	  13.921	  83.295
 1668	  0.1796	 13.9462	  13.946	  83.445
 1671	  0.1796	 13.9712	  13.971	  83.595
 1674	  0.1800	 13.9963	  13.996	  83.745
 1677	  0.1808	 14.0212	  14.021	  83.895
 1680	  0.1800	 14.0462	  14.046	  84.045
 1683	  0.1800	 14.0712	  14.071	  84.195
 1686	  0.1804	 14.0962	  14.096	  84.345
 1689	  0.1804	 14.1213	  14.121	  84.495
 1692	  0.1808	 14.1462	  14.146	  84.645
 1695	  0.1812	 14.1712	  14.171	  84.795
 1698	  0.1820	 14.1962	  14.196	  84.945
 1701	  0.1816	 14.2212	  14.221	  85.095
 1704	  0.1816	 14.2463	  14.246	  85.245
 1707	  0.1812	 14.2712	  14.271	  85.395
 1710	  0.1820	 14.2962	  14.296	  85.545
 1713	  0.1824	 14.3212	  14.321	  85.695
 1716	  0.1820	 14.3462	  14.346	  85.845
 1719	  0.1824	 14.3713	  14.371	  85.995
 1722	  0.1824	 14.3962	  14.396	  86.145
 1725	  0.1824	 14.4212	  14.421	  86.295
 1728	  0.1828	 14.4462	  14.446	  86.445
 1731	  0.1828	 14.4712	  14.471	  86.595
 1734	  0.1828	 14.4963	  14.496	  86.745
 1737	  0.1832	 14.5212	  14.521	  86.895
 1740	  0.1832	 14.5462	  14.546	  87.045
 1743	  0.1836	 14.5712	  14.571	  87.195
 1746	  0.1836	 14.5962	  14.596	  87.345
 1749	  0.1836	 14.6212	  14.621	  87.495
 1752	  0.1844	 14.6462	  14.646	  87.645
 1755	  0.1844	 14.6712	  14.671	  87.795
 1758	  0.1840	 14.6962	  14.696	  87.945
 1761	  0.1840	 14.7212	  14.721	  88.095
 1764	  0.1848	 14.7462	  14.746	  88.245
 1767	  0.1848	 14.7712	  14.771	  88.395
 1770	  0.1848	 14.7962	  14.796	  88.545
 1773	  0.1852	 14.8212	  14.821	  88.695
 1776	  0.1844	 14.8462	  14.846	  88.845
 1779	  0.1848	 14.8725	  14.872	  88.995
 1782	  0.1844	 14.8962	  14.896	  89.145
 1785	  0.1848	 14.9225	  14.922	  89.295
 1788	  0.1844	 14.9462	  14.946	  89.445
 1791	  0.1856	 14.9725	  14.972	  89.595
 1794	  0.1856	 14.9975	  14.997	  89.745
 1797	  0.1856	 15.0225	  15.023	  89.895
 1800	  0.1864	 15.0475	  15.047	  90.045
 1803	  0.1860	 15.0725	  15.072	  90.195
 1806	  0.1860	 15.0975	  15.097	  90.345
 1809	  0.1856	 15.1225	  15.122	  90.495
 1812	  0.1864	 15.1475	  15.148	  90.645
 1815	  0.1864	 15.1725	  15.172	  90.795
 1818	  0.1864	 15.1975	  15.197	  90.945
 1821	  0.1864	 15.2225	  15.222	  91.095
 1824	  0.1864	 15.2475	  15.247	  91.245
 1827	  0.1864	 15.2725	  15.273	  91.395
 1830	  0.1868	 15.2987	  15.299	  91.545
 1833	  0.1868	 15.3225	  15.322	  91.695
 1836	  0.1868	 15.3488	  15.349	  91.845
 1839	  0.1868	 15.3737	  15.374	  91.995
 1842	  0.1876	 15.3987	  15.399	  92.145
 1845	  0.1876	 15.4237	  15.424	  92.295
 1848	  0.1876	 15.4487	  15.449	  92.445
 1851	  0.1884	 15.4738	  15.474	  92.595
 1854	  0.1876	 15.4987	  15.499	  92.745
 1857	  0.1876	 15.5237	  15.524	  92.895
 1860	  0.1884	 15.5487	  15.549	  93.045
 1863	  0.1880	 15.5737	  15.574	  93.195
 1866	  0.1888	 15.6000	  15.600	  93.345
 1869	  0.1884	 15.6250	  15.625	  93.495
 1872	  0.1888	 15.6500	  15.650	  93.645
 1875	  0.1884	 15.6750	  15.675	  93.795
 1878	  0.1888	 15.7000	  15.700	  93.945
 1881	  0.1892	 15.7250	  15.725	  94.095
 1884	  0.1896	 15.7500	  15.750	  94.245
 1887	  0.1892	 15.7750	  15.775	  94.395
 1890	  0.1884	 15.8000	  15.800	  94.545
 1893	  0.1896	 15.8250	  15.825	  94.695
 1896	  0.1892	 15.8512	  15.851	  94.845
 1899	  0.1888	 15.8762	  15.876	  94.995
 1902	  0.1888	 15.9012	  15.901	  95.145
 1905	  0.1896	 15.9262	  15.926	  95.295
 1908	  0.1900	 15.9513	  15.951	  95.445
 1911	  0.1896	 15.9762	  15.976	  95.595
 1914	  0.1900	 16.0012	  16.001	  95.745
 1917	  0.1896	 16.0262	  16.026	  95.895
 1920	  0.1896	 16.0525	  16.052	  96.045
 1923	  0.1904	 16.0763	  16.076	  96.195
 1926	  0.1908	 16.1025	  16.102	  96.345
 1929	  0.1904	 16.1275	  16.128	  96.495
 1932	  0.1900	 16.1525	  16.153	  96.645
 1935	  0.1908	 16.1775	  16.177	  96.795
 1938	  0.1904	 16.2025	  16.202	  96.945
 1941	  0.1908	 16.2275	  16.227	  97.095
 1944	  0.1912	 16.2525	  16.253	  97.245
 1947	  0.1912	 16.2775	  16.278	  97.395
 1950	  0.1912	 16.3025	  16.302	  97.545
 1953	  0.1912	 16.3275	  16.327	  97.695
 1956	  0.1916	 16.3525	  16.352	  97.845
 1959	  0.1916	 16.3787	  16.379	  97.995
 1962	  0.1912	 16.4037	  16.404	  98.145
 1965	  0.1920	 16.4287	  16.429	  98.295
 1968	  0.1916	 16.4537	  16.454	  98.445
 1971	  0.1920	 16.4788	  16.479	  98.595
 1974	  0.1920	 16.5037	  16.504	  98.745
 1977	  0.1920	 16.5287	  16.529	  98.895
 1980	  0.1924	 16.5537	  16.554	  99.045
 1983	  0.1920	 16.5787	  16.579	  99.195
 1986	  0.1924	 16.6038	  16.604	  99.345
 1989	  0.1928	 16.6287	  16.629	  99.495
 1992	  0.1936	 16.6537	  16.654	  99.645
 1995	  0.1936	 16.6800	  16.680	  99.795
 1998	  0.1940	 16.7050	  16.705	  99.945
 2001	  0.1944	 16.7300	  16.730	 100.095
 2004	  0.1944	 16.7550	  16.755	 100.245
 2007	  0.1940	 16.7800	  16.780	 100.395
 2010	  0.1952	 16.8050	  16.805	 100.545
 2013	  0.1952	 16.8300	  16.830	 100.695
 2016	  0.1952	 16.8538	  16.854	 100.845
 2019	  0.1948	 16.8787	  16.879	 100.995
 2022	  0.1956	 16.9037	  16.904	 101.145
 2025	  0.1948	 16.9287	  16.929	 101.295
 2028	  0.1948	 16.9537	  16.954	 101.445
 2031	  0.1952	 16.9788	  16.979	 101.595
 2034	  0.1948	 17.0050	  17.005	 101.745
 2037	  0.1952	 17.0287	  17.029	 101.895
 2040	  0.1964	 17.0537	  17.054	 102.045
 2043	  0.1960	 17.0787	  17.079	 102.195
 2046	  0.1952	 17.1050	  17.105	 102.345
 2049	  0.1956	 17.1300	  17.130	 102.495
 2052	  0.1960	 17.1550	  17.155	 102.645
 2055	  0.1960	 17.1800	  17.180	 102.795
 2058	  0.1964	 17.2050	  17.205	 102.945
 2061	  0.1968	 17.2300	  17.230	 103.095
 2064	  0.1964	 17.2550	  17.255	 103.245
 2067	  0.1968	 17.2800	  17.280	 103.395
 2070	  0.1964	 17.3050	  17.305	 103.545
 2073	  0.1968	 17.3300	  17.330	 103.695
 2076	  0.1968	 17.3550	  17.355	 103.845
 2079	  0.1968	 17.3800	  17.380	 103.995
 2082	  0.1968	 17.4050	  17.405	 104.145
 2085	  0.1968	 17.4300	  17.430	 104.295
 2088	  0.1968	 17.4550	  17.455	 104.445
 2091	  0.1972	 17.4800	  17.480	 104.595
 2094	  0.1972	 17.5050	  17.505	 104.745
 2097	  0.1972	 17.5300	  17.530	 104.895
 2100	  0.1976	 17.5550	  17.555	 105.045
 2103	  0.1972	 17.5800	  17.580	 105.195
 2106	  0.1968	 17.6050	  17.605	 105.345
 2109	  0.1972	 17.6300	  17.630	 105.495
 2112	  0.1976	 17.6550	  17.655	 105.645
 2115	  0.1976	 17.6800	  17.680	 105.795
 2118	  0.1976	 17.7050	  17.705	 105.945
 2121	  0.1984	 17.7300	  17.730	 106.095
 2124	  0.1984	 17.7550	  17.755	 106.245
 2127	  0.1976	 17.7800	  17.780	 106.395
 2130	  0.1980	 17.8050	  17.805	 106.545
 2133	  0.1976	 17.8300	  17.830	 106.695
 2136	  0.1976	 17.8550	  17.855	 106.845
 2139	  0.1980	 17.8800	  17.880	 106.995
 2142	  0.1980	 17.9050	  17.905	 107.145
 2145	  0.1980	 17.9300	  17.930	 107.295
 2148	  0.1988	 17.9550	  17.955	 107.445
 2151	  0.1992	 17.9800	  17.980	 107.595
 2154	  0.1988	 18.0050	  18.005	 107.745
 2157	  0.1992	 18.0300	  18.030	 107.895
 2160	  0.1996	 18.0550	  18.055	 108.045
 2163	  0.2000	 18.0800	  18.080	 108.195
 2166	  0.2000	 18.1050	  18.105	 108.345
 2169	  0.1996	 18.1300	  18.130	 108.495
 2172	  0.2000	 18.1550	  18.155	 108.645
 2175	  0.2004	 18.1800	  18.180	 108.795
 2178	  0.2004	 18.2050	  18.205	 108.945
 2181	  0.2004	 18.2300	  18.230	 109.095
 2184	  0.2000	 18.2550	  18.255	 109.245
 2187	  0.2004	 18.2800	  18.280	 109.395
 2190	  0.2004	 18.3050	  18.305	 109.545
 2193	  0.2000	 18.3300	  18.330	 109.695
 2196	  0.2004	 18.3550	  18.355	 109.845
 2199	  0.2000	 18.3800	  18.380	 109.995
 2202	  0.2008	 18.4050	  18.405	 110.145
 2205	  0.2012	 18.4300	  18.430	 110.295
 2208	  0.2016	 18.4550	  18.455	 110.445
 2211	  0.2008	 18.4800	  18.480	 110.595
 2214	  0.2012	 18.5050	  18.505	 110.745
 2217	  0.2012	 18.5300	  18.530	 110.895
 2220	  0.2008	 18.5550	  18.555	 111.045
 2223	  0.2016	 18.5800	  18.580	 111.195
 2226	  0.2016	 18.6050	  18.605	 111.345
 2229	  0.2016	 18.6300	  18.630	 111.495
 2232	  0.2008	 18.6550	  18.655	 111.645
 2235	  0.2016	 18.6812	  18.681	 111.795
 2238	  0.2012	 18.7050	  18.705	 111.945
 2241	  0.2020	 18.7312	  18.731	 112.095
 2244	  0.2008	 18.7563	  18.756	 112.245
 2247	  0.2020	 18.7812	  18.781	 112.395
 2250	  0.2020	 18.8062	  18.806	 112.545
 2253	  0.2020	 18.8312	  18.831	 112.695
 2256	  0.2020	 18.8562	  18.856	 112.845
 2259	  0.2028	 18.8813	  18.881	 112.995
 2262	  0.2016	 18.9062	  18.906	 113.145
 2265	  0.2020	 18.9312	  18.931	 113.295
 2268	  0.2024	 18.9562	  18.956	 113.445
 2271	  0.2032	 18.9812	  18.981	 113.595
 2274	  0.2024	 19.0075	  19.007	 113.745
 2277	  0.2024	 19.0325	  19.032	 113.895
 2280	  0.2024	 19.0575	  19.057	 114.045
 2283	  0.2024	 19.0825	  19.083	 114.195
 2286	  0.2024	 19.1075	  19.108	 114.345
 2289	  0.2024	 19.1325	  19.132	 114.495
 2292	  0.2032	 19.1575	  19.157	 114.645
 2295	  0.2032	 19.1825	  19.182	 114.795
 2298	  0.2028	 19.2075	  19.208	 114.945
 2301	  0.2032	 19.2325	  19.233	 115.095
 2304	  0.2028	 19.2575	  19.257	 115.245
 2307	  0.2040	 19.2825	  19.282	 115.395
 2310	  0.2040	 19.3088	  19.309	 115.545
 2313	  0.2040	 19.3337	  19.334	 115.695
 2316	  0.2044	 19.3587	  19.359	 115.845
 2319	  0.2052	 19.3837	  19.384	 115.995
 2322	  0.2044	 19.4087	  19.409	 116.145
 2325	  0.2048	 19.4338	  19.434	 116.295
 2328	  0.2048	 19.4587	  19.459	 116.445
 2331	  0.2048	 19.4850	  19.485	 116.595
 2334	  0.2048	 19.5100	  19.510	 116.745
 2337	  0.2048	 19.5350	  19.535	 116.895
 2340	  0.2056	 19.5600	  19.560	 117.045
 2343	  0.2056	 19.5850	  19.585	 117.195
 2346	  0.2048	 19.6112	  19.611	 117.345
 2349	  0.2052	 19.6362	  19.636	 117.495
 2352	  0.2048	 19.6612	  19.661	 117.645
 2355	  0.2052	 19.6862	  19.686	 117.795
 2358	  0.2052	 19.7113	  19.711	 117.945
 2361	  0.2056	 19.7362	  19.736	 118.095
 2364	  0.2052	 19.7612	  19.761	 118.245
 2367	  0.2056	 19.7850	  19.785	 118.395
 2370	  0.2060	 19.8100	  19.810	 118.545
 2373	  0.2056	 19.8363	  19.836	 118.695
 2376	  0.2056	 19.8612	  19.861	 118.845
 2379	  0.2052	 19.8862	  19.886	 118.995
 2382	  0.2052	 19.9112	  19.911	 119.145
 2385	  0.2064	 19.9362	  19.936	 119.295
 2388	  0.2068	 19.9613	  19.961	 119.445
 2391	  0.2060	 19.9862	  19.986	 119.595
 2394	  0.2060	 20.0125	  20.012	 119.745
 2397	  0.2064	 20.0375	  20.038	 119.895
 2400	  0.2056	 20.0625	  20.062	 120.045
 2403	  0.2060	 20.0875	  20.087	 120.195
 2406	  0.2060	 20.1125	  20.112	 120.345
 2409	  0.2068	 20.1388	  20.139	 120.495
 2412	  0.2068	 20.1637	  20.164	 120.645
 2415	  0.2064	 20.1887	  20.189	 120.795
 2418	  0.2064	 20.2137	  20.214	 120.945
 2421	  0.2076	 20.2388	  20.239	 121.095
 2424	  0.2072	 20.2638	  20.264	 121.245
 2427	  0.2072	 20.2887	  20.289	 121.395
 2430	  0.2068	 20.3137	  20.314	 121.545
 2433	  0.2076	 20.3387	  20.339	 121.695
 2436	  0.2072	 20.3638	  20.364	 121.845
 2439	  0.2084	 20.3900	  20.390	 121.995
 2442	  0.2080	 20.4150	  20.415	 122.145
 2445	  0.2080	 20.4400	  20.440	 122.295
 2448	  0.2084	 20.4650	  20.465	 122.445
 2451	  0.2088	 20.4900	  20.490	 122.595
 2454	  0.2080	 20.5150	  20.515	 122.745
 2457	  0.2080	 20.5400	  20.540	 122.895
 2460	  0.2084	 20.5650	  20.565	 123.045
 2463	  0.2084	 20.5900	  20.590	 123.195
 2466	  0.2092	 20.6150	  20.615	 123.345
 2469	  0.2092	 20.6400	  20.640	 123.495
 2472	  0.2084	 20.6650	  20.665	 123.645
 2475	  0.2084	 20.6900	  20.690	 123.795
 2478	  0.2080	 20.7150	  20.715	 123.945
 2481	  0.2088	 20.7400	  20.740	 124.095
 2484	  0.2088	 20.7650	  20.765	 124.245
 2487	  0.2088	 20.7900	  20.790	 124.395
 2490	  0.2088	 20.8162	  20.816	 124.545
 2493	  0.2084	 20.8412	  20.841	 124.695
 2496	  0.2088	 20.8662	  20.866	 124.845
 2499	  0.2088	 20.8912	  20.891	 124.995
 2502	  0.2096	 20.9163	  20.916	 125.145
 2505	  0.2084	 20.9412	  20.941	 125.295
 2508	  0.2080	 20.9662	  20.966	 125.445
 2511	  0.2088	 20.9912	  20.991	 125.595
 2514	  0.2096	 21.0162	  21.016	 125.745
 2517	  0.2096	 21.0413	  21.041	 125.895
 2520	  0.2100	 21.0662	  21.066	 126.045
 2523	  0.2100	 21.0912	  21.091	 126.195
 2526	  0.2104	 21.1162	  21.116	 126.345
 2529	  0.2100	 21.1425	  21.142	 126.495
 2532	  0.2100	 21.1675	  21.167	 126.645
 2535	  0.2100	 21.1925	  21.192	 126.795
 2538	  0.2096	 21.2162	  21.216	 126.945
 2541	  0.2100	 21.2425	  21.243	 127.095
 2544	  0.2100	 21.2675	  21.267	 127.245
 2547	  0.2096	 21.2925	  21.292	 127.395
 2550	  0.2100	 21.3175	  21.317	 127.545
 2553	  0.2108	 21.3412	  21.341	 127.695
 2556	  0.2108	 21.3675	  21.368	 127.845
 2559	  0.2104	 21.3925	  21.392	 127.995
 2562	  0.2104	 21.4175	  21.417	 128.145
 2565	  0.2100	 21.4425	  21.442	 128.295
 2568	  0.2112	 21.4675	  21.467	 128.445
 2571	  0.2108	 21.4925	  21.493	 128.595
 2574	  0.2104	 21.5175	  21.517	 128.745
 2577	  0.2108	 21.5425	  21.542	 128.895
 2580	  0.2112	 21.5675	  21.567	 129.045
 2583	  0.2112	 21.5925	  21.592	 129.195
 2586	  0.2116	 21.6175	  21.618	 129.345
 2589	  0.2112	 21.6425	  21.642	 129.495
 2592	  0.2112	 21.6675	  21.667	 129.645
 2595	  0.2116	 21.6925	  21.692	 129.795
 2598	  0.2120	 21.7175	  21.717	 129.945
 2601	  0.2112	 21.7425	  21.743	 130.095
 2604	  0.2120	 21.7675	  21.767	 130.245
 2607	  0.2128	 21.7925	  21.792	 130.395
 2610	  0.2124	 21.8175	  21.817	 130.545
 2613	  0.2128	 21.8425	  21.842	 130.695
 2616	  0.2132	 21.8675	  21.868	 130.845
 2619	  0.2128	 21.8925	  21.892	 130.995
 2622	  0.2124	 21.9175	  21.917	 131.145
 2625	  0.2124	 21.9425	  21.942	 131.295
 2628	  0.2120	 21.9675	  21.967	 131.445
 2631	  0.2124	 21.9925	  21.993	 131.595
 2634	  0.2132	 22.0175	  22.017	 131.745
 2637	  0.2128	 22.0413	  22.041	 131.895
 2640	  0.2128	 22.0675	  22.067	 132.045
 2643	  0.2128	 22.0925	  22.092	 132.195
 2646	  0.2132	 22.1175	  22.118	 132.345
 2649	  0.2124	 22.1425	  22.142	 132.495
 2652	  0.2128	 22.1675	  22.167	 132.645
 2655	  0.2128	 22.1925	  22.192	 132.795
 2658	  0.2128	 22.2175	  22.217	 132.945
 2661	  0.2136	 22.2425	  22.243	 133.095
 2664	  0.2132	 22.2675	  22.267	 133.245
 2667	  0.2132	 22.2913	  22.291	 133.395
 2670	  0.2136	 22.3162	  22.316	 133.545
 2673	  0.2136	 22.3412	  22.341	 133.695
 2676	  0.2128	 22.3662	  22.366	 133.845
 2679	  0.2136	 22.3912	  22.391	 133.995
 2682	  0.2132	 22.4163	  22.416	 134.145
 2685	  0.2136	 22.4412	  22.441	 134.295
 2688	  0.2144	 22.4662	  22.466	 134.445
 2691	  0.2140	 22.4912	  22.491	 134.595
 2694	  0.2136	 22.5162	  22.516	 134.745
 2697	  0.2136	 22.5413	  22.541	 134.895
 2700	  0.2140	 22.5662	  22.566	 135.045
 2703	  0.2132	 22.5912	  22.591	 135.195
 2706	  0.2136	 22.6162	  22.616	 135.345
 2709	  0.2136	 22.6412	  22.641	 135.495
 2712	  0.2136	 22.6663	  22.666	 135.645
 2715	  0.2140	 22.6912	  22.691	 135.795
 2718	  0.2136	 22.7162	  22.716	 135.945
 2721	  0.2148	 22.7412	  22.741	 136.095
 2724	  0.2136	 22.7662	  22.766	 136.245
 2727	  0.2136	 22.7913	  22.791	 136.395
 2730	  0.2136	 22.8162	  22.816	 136.545
 2733	  0.2140	 22.8412	  22.841	 136.695
 2736	  0.2136	 22.8662	  22.866	 136.845
 2739	  0.2132	 22.8912	  22.891	 136.995
 2742	  0.2140	 22.9163	  22.916	 137.145
 2745	  0.2140	 22.9412	  22.941	 137.295
 2748	  0.2144	 22.9662	  22.966	 137.445
 2751	  0.2140	 22.9912	  22.991	 137.595
 2754	  0.2140	 23.0162	  23.016	 137.745
 2757	  0.2144	 23.0413	  23.041	 137.895
 2760	  0.2140	 23.0662	  23.066	 138.045
 2763	  0.2140	 23.0912	  23.091	 138.195
 2766	  0.2140	 23.1162	  23.116	 138.345
 2769	  0.2144	 23.1412	  23.141	 138.495
 2772	  0.2144	 23.1675	  23.167	 138.645
 2775	  0.2136	 23.1925	  23.192	 138.795
 2778	  0.2144	 23.2175	  23.217	 138.945
 2781	  0.2144	 23.2425	  23.243	 139.095
 2784	  0.2148	 23.2675	  23.267	 139.245
 2787	  0.2148	 23.2925	  23.292	 139.395
 2790	  0.2144	 23.3175	  23.317	 139.545
 2793	  0.2144	 23.3425	  23.342	 139.695
 2796	  0.2152	 23.3687	  23.369	 139.845
 2799	  0.2148	 23.3937	  23.394	 139.995
 2802	  0.2148	 23.4187	  23.419	 140.145
 2805	  0.2148	 23.4438	  23.444	 140.295
 2808	  0.2144	 23.4688	  23.469	 140.445
 2811	  0.2152	 23.4937	  23.494	 140.595
 2814	  0.2148	 23.5200	  23.520	 140.745
 2817	  0.2156	 23.5437	  23.544	 140.895
 2820	  0.2152	 23.5700	  23.570	 141.045
 2823	  0.2152	 23.5950	  23.595	 141.195
 2826	  0.2156	 23.6200	  23.620	 141.345
 2829	  0.2156	 23.6450	  23.645	 141.495
 2832	  0.2152	 23.6700	  23.670	 141.645
 2835	  0.2152	 23.6950	  23.695	 141.795
 2838	  0.2160	 23.7212	  23.721	 141.945
 2841	  0.2164	 23.7463	  23.746	 142.095
 2844	  0.2156	 23.7712	  23.771	 142.245
 2847	  0.2160	 23.7962	  23.796	 142.395
 2850	  0.2156	 23.8212	  23.821	 142.545
 2853	  0.2152	 23.8462	  23.846	 142.695
 2856	  0.2156	 23.8713	  23.871	 142.845
 2859	  0.2156	 23.8975	  23.897	 142.995
 2862	  0.2156	 23.9225	  23.922	 143.145
 2865	  0.2152	 23.9475	  23.948	 143.295
 2868	  0.2156	 23.9725	  23.972	 143.445
 2871	  0.2160	 23.9975	  23.997	 143.595
 2874	  0.2152	 24.0225	  24.022	 143.745
 2877	  0.2160	 24.0487	  24.049	 143.895
 2880	  0.2152	 24.0737	  24.074	 144.045
 2883	  0.2152	 24.0987	  24.099	 144.195
 2886	  0.2152	 24.1237	  24.124	 144.345
 2889	  0.2156	 24.1488	  24.149	 144.495
 2892	  0.2160	 24.1737	  24.174	 144.645
 2895	  0.2160	 24.1987	  24.199	 144.795
 2898	  0.2160	 24.2237	  24.224	 144.945
 2901	  0.2168	 24.2487	  24.249	 145.095
 2904	  0.2168	 24.2738	  24.274	 145.245
 2907	  0.2160	 24.3000	  24.300	 145.395
 2910	  0.2156	 24.3250	  24.325	 145.545
 2913	  0.2164	 24.3500	  24.350	 145.695
 2916	  0.2160	 24.3750	  24.375	 145.845
 2919	  0.2160	 24.4000	  24.400	 145.995
 2922	  0.2164	 24.4250	  24.425	 146.145
 2925	  0.2168	 24.4500	  24.450	 146.295
 2928	  0.2160	 24.4750	  24.475	 146.445
 2931	  0.2168	 24.5000	  24.500	 146.595
 2934	  0.2164	 24.5250	  24.525	 146.745
 2937	  0.2164	 24.5500	  24.550	 146.895
 2940	  0.2164	 24.5750	  24.575	 147.045
 2943	  0.2164	 24.6000	  24.600	 147.195
 2946	  0.2152	 24.6250	  24.625	 147.345
 2949	  0.2152	 24.6500	  24.650	 147.495
 2952	  0.2144	 24.6750	  24.675	 147.645
 2955	  0.0020	 24.7000	  24.700	 147.795
 2958	  0.0016	 24.7262	  24.726	 147.945
 2961	  0.0020	 24.7512	  24.751	 148.095
 2964	  0.0024	 24.7762	  24.776	 148.245
 2967	  0.0020	 24.8012	  24.801	 148.395
 2970	  0.0024	 24.8263	  24.826	 148.545
 2973	  0.0020	 24.8512	  24.851	 148.695
 2976	  0.0020	 24.8762	  24.876	 148.845
 2979	  0.0024	 24.9012	  24.901	 148.995
 2982	  0.0020	 24.9262	  24.926	 149.145
 2985	  0.0024	 24.9513	  24.951	 149.295
 2988	  0.0028	 24.9762	  24.976	 149.445
 2991	  0.0024	 25.0012	  25.001	 149.595
 2994	  0.0020	 25.0275	  25.028	 149.745
 2997	  0.0024	 25.0525	  25.052	 149.895
 3000	  0.0020	 25.0775	  25.077	 150.045
 3003	  0.0024	 25.1025	  25.102	 150.195
 3006	  0.0028	 25.1275	  25.127	 150.345
 3008	  0.0024	 25.1437	  25.144	 150.445
ControlMode:	0
Rate:	 10.0000
(null)
4
step	1
0
5.000000
0.000000
1
1
0.500000
2
step	2
1
5.000000
0.000000
1
1
2.000000
3
step	3
5
2.000000
0.000000
1
0
30
4
step	4
8
0.000000
0.000000
0
0
0.000000
0
2